time,seconds_elapsed,z,y,x
1759865027420054500,-0.552945556640625,-48.47999954223633,0.6599999666213989,12.420000076293945
1759865027460276500,-0.5127236328125,-47.21999740600586,1.5,14.579999923706055
1759865027470347300,-0.50265283203125,-47.57999801635742,1.3199999332427979,14.039999961853027
1759865027480418000,-0.49258203125,-47.63999938964844,0.8999999761581421,13.619999885559082
1759865027490519600,-0.48248046875,-48.119998931884766,0.35999998450279236,12.84000015258789
1759865027500590300,-0.47240966796875,-48.29999923706055,0.17999999225139618,12.119999885559082
1759865027510661000,-0.4623388671875,-47.87999725341797,-0.05999999865889549,12.239999771118164
1759865027520732000,-0.45226806640625,-47.52000045776367,0.29999998211860657,12.479999542236328
1759865027561137200,-0.41186279296875,-47.57999801635742,0.8399999737739563,12.84000015258789
1759865027581340000,-0.39166015625,-47.459999084472656,0.6599999666213989,13.139999389648438
1759865027591410700,-0.38158935546875,-47.7599983215332,0.5399999618530273,13.380000114440918
1759865027601512000,-0.371488037109375,-48.05999755859375,0.35999998450279236,13.380000114440918
1759865027611613200,-0.36138671875,-48.119998931884766,0.8999999761581421,13.799999237060547
1759865027621684000,-0.35131591796875,-48.18000030517578,0.35999998450279236,13.079999923706055
1759865027631754800,-0.341245361328125,-48.18000030517578,0,12.719999313354492
1759865027641825500,-0.331174560546875,-47.939998626708984,-0.11999999731779099,12.420000076293945
1759865027661997800,-0.311002197265625,-47.459999084472656,0,12.239999771118164
1759865027712351700,-0.260648193359375,-47.099998474121094,0.41999998688697815,12.84000015258789
1759865027762797300,-0.21020263671875,-47.7599983215332,-0.23999999463558197,10.979999542236328
1759865027793009700,-0.179990234375,-47.279998779296875,0.11999999731779099,11.699999809265137
1759865027823283200,-0.149716796875,-47.099998474121094,-0.6599999666213989,11.819999694824219
1759865027833323500,-0.139676513671875,-47.279998779296875,-0.6599999666213989,11.460000038146973
1759865027843394300,-0.129605712890625,-47.34000015258789,-1.0199999809265137,10.920000076293945
1759865027853495600,-0.11950439453125,-47.459999084472656,-0.6599999666213989,10.920000076293945
1759865027863566300,-0.10943359375,-46.91999816894531,-0.47999998927116394,10.4399995803833
1759865027893778700,-0.07922119140625,-47.70000076293945,-0.8399999737739563,9.59999942779541
1759865027903819000,-0.069180908203125,-48.05999755859375,-1.0199999809265137,9.420000076293945
1759865027913920300,-0.059079833984375,-48.959999084472656,-1.0799999237060547,8.760000228881836
1759865027924021800,-0.048978271484375,-49.439998626708984,-1.1399999856948853,8.519999504089355
1759865027934092500,-0.038907470703125,-49.13999938964844,-0.8399999737739563,8.220000267028809
1759865027944132900,-0.0288671875,-49.20000076293945,-0.7199999690055847,7.440000057220459
1759865027954234000,-0.018765869140625,-48.959999084472656,-0.17999999225139618,7.079999923706055
1759865027964305000,-0.008695068359375,-48.84000015258789,0.7199999690055847,6.239999771118164
1759865028004588000,0.031588134765625,-48.18000030517578,7.440000057220459,2.5799999237060547
1759865028014628400,0.04162841796875,-47.81999969482422,9.539999961853027,1.0199999809265137
1759865028024668700,0.051668701171875,-47.21999740600586,12.119999885559082,-0.7799999713897705
1759865028034770000,0.06177001953125,-46.5,15.179999351501465,-1.9799998998641968
1759865028044810200,0.071810302734375,-45.599998474121094,18.600000381469727,-3.5999999046325684
1759865028054911500,0.081911376953125,-43.55999755859375,22.739999771118164,-4.139999866485596
1759865028064951800,0.091951904296875,-40.73999786376953,26.639999389648438,-4.739999771118164
1759865028115367000,0.142366943359375,-20.100000381469727,41.279998779296875,-9.479999542236328
1759865028125407200,0.1524072265625,-14.880000114440918,43.07999801635742,-9.65999984741211
1759865028135478000,0.16247802734375,-9.65999984741211,43.79999923706055,-9.84000015258789
1759865028145518300,0.172518310546875,-3.9599997997283936,44.040000915527344,-9.899999618530273
1759865028155619600,0.18261962890625,1.1999999284744263,44.279998779296875,-8.9399995803833
1759865028165690400,0.1926904296875,6.359999656677246,42.89999771118164,-9.300000190734863
1759865028205973500,0.232973388671875,22.68000030517578,33.47999954223633,-10.319999694824219
1759865028226084600,0.253084716796875,27.119998931884766,30.17999839782715,-10.019999504089355
1759865028266368000,0.293367919921875,31.5,26.939998626708984,-10.920000076293945
1759865028286509600,0.313509521484375,32.040000915527344,26.51999855041504,-10.079999923706055
1759865028296580400,0.323580322265625,32.7599983215332,26.579999923706055,-9.779999732971191
1759865028346873300,0.373873291015625,31.439998626708984,26.69999885559082,-8.15999984741211
1759865028377116200,0.4041162109375,30.899999618530273,27.239999771118164,-7.37999963760376
1759865029717136100,1.74413623046875,30.599998474121094,29.15999984741211,-9.719999313354492
1759865029736877800,1.7638779296875,29.939998626708984,26.51999855041504,-15.299999237060547
1759865029746548700,1.773548828125,29.219999313354492,24.65999984741211,-18.53999900817871
1759865029756388900,1.783388916015625,29.51999855041504,25.19999885559082,-18.35999870300293
1759865029766259700,1.793259765625,29.399999618530273,25.139999389648438,-18.420000076293945
1759865029776230400,1.80323046875,29.459999084472656,25.260000228881836,-18.479999542236328
1759865029786270700,1.813270751953125,29.579999923706055,25.619998931884766,-18.119998931884766
1759865029796341500,1.823341552734375,29.15999984741211,25.31999969482422,-18.239999771118164
1759865029806443000,1.833443115234375,29.459999084472656,25.439998626708984,-17.639999389648438
1759865029816513800,1.843513671875,28.979999542236328,25.439998626708984,-17.69999885559082
1759865029826554000,1.85355419921875,29.219999313354492,25.5,-17.459999084472656
1759865029887009300,1.91400927734375,28.5,25.799999237060547,-17.69999885559082
1759865029917252400,1.94425244140625,30.35999870300293,25.739999771118164,-17.459999084472656
1759865029947525600,1.974525634765625,30.239999771118164,25.5,-18.18000030517578
1759865029957596400,1.984596435546875,29.81999969482422,25.619998931884766,-17.639999389648438
1759865029997940700,2.024940673828125,29.34000015258789,25.139999389648438,-18.119998931884766
1759865030008042000,2.0350419921875,29.099998474121094,25.079999923706055,-18.299999237060547
1759865030028183600,2.05518359375,29.099998474121094,25.68000030517578,-16.68000030517578
1759865030078537700,2.105537841796875,30.599998474121094,24.719999313354492,-16.739999771118164
1759865030088608500,2.1156083984375,30.899999618530273,24.65999984741211,-16.3799991607666
1759865030098679300,2.12567919921875,30.53999900817871,24.299999237060547,-16.920000076293945
1759865030108780500,2.135780517578125,30.119998931884766,24.600000381469727,-17.459999084472656
1759865030118851300,2.145851318359375,30.420000076293945,24.959999084472656,-17.459999084472656
1759865030128922000,2.155922119140625,30.239999771118164,24.84000015258789,-18.119998931884766
1759865030169205500,2.19620556640625,30.239999771118164,26.34000015258789,-16.31999969482422
1759865030179306800,2.206306640625,30.35999870300293,26.639999389648438,-15.479999542236328
1759865030189377500,2.21637744140625,29.8799991607666,26.219999313354492,-16.260000228881836
1759865030199448300,2.2264482421875,29.51999855041504,25.68000030517578,-16.920000076293945
1759865030209488600,2.236488525390625,29.099998474121094,25.979999542236328,-16.3799991607666
1759865030219559400,2.246559326171875,28.559999465942383,25.439998626708984,-17.03999900817871
1759865030229630200,2.256630126953125,28.559999465942383,25.139999389648438,-16.979999542236328
1759865030239701000,2.266700927734375,28.079999923706055,25.19999885559082,-17.219999313354492
1759865030249741300,2.2767412109375,28.260000228881836,25.439998626708984,-16.85999870300293
1759865030279953700,2.30695361328125,28.68000030517578,25.920000076293945,-16.739999771118164
1759865030289994000,2.316993896484375,28.85999870300293,25.68000030517578,-16.85999870300293
1759865030300064800,2.327064697265625,29.279998779296875,26.459999084472656,-15.420000076293945
1759865030310105000,2.33710498046875,28.979999542236328,26.099998474121094,-15.719999313354492
1759865030320175900,2.34717578125,28.619998931884766,26.15999984741211,-16.440000534057617
1759865030330277000,2.357277099609375,28.3799991607666,26.03999900817871,-16.3799991607666
1759865030350388200,2.37738818359375,29.34000015258789,26.03999900817871,-17.520000457763672
1759865030370529800,2.39752978515625,29.81999969482422,26.34000015258789,-16.799999237060547
1759865030420884000,2.447884033203125,29.34000015258789,26.51999855041504,-16.979999542236328
1759865030451157200,2.4781572265625,29.51999855041504,25.31999969482422,-16.5
1759865030461228000,2.48822802734375,29.760000228881836,25.079999923706055,-16.31999969482422
1759865030501572400,2.528572265625,30.119998931884766,25.31999969482422,-16.31999969482422
1759865030531815200,2.558815185546875,30.239999771118164,25.739999771118164,-17.399999618530273
1759865030541886000,2.568885986328125,30.059999465942383,26.15999984741211,-16.979999542236328
1759865030572098600,2.5990986328125,30.959999084472656,25.619998931884766,-16.31999969482422
1759865030622422000,2.649422119140625,29.69999885559082,25.979999542236328,-16.139999389648438
1759865030632523300,2.659523193359375,29.69999885559082,25.979999542236328,-16.619998931884766
1759865030642594000,2.669593994140625,29.69999885559082,25.619998931884766,-16.799999237060547
1759865030652634400,2.67963427734375,30.119998931884766,25.920000076293945,-16.920000076293945
1759865030682816300,2.709816162109375,30,25.439998626708984,-16.079999923706055
1759865030713059000,2.74005908203125,29.459999084472656,24.479999542236328,-18
1759865030733200600,2.76020068359375,30,25.31999969482422,-17.459999084472656
1759865030743302100,2.77030224609375,30.17999839782715,25.619998931884766,-17.34000015258789
1759865030763413200,2.790413330078125,30.17999839782715,26.579999923706055,-15.479999542236328
1759865030813767200,2.84076708984375,29.579999923706055,25.85999870300293,-16.739999771118164
1759865030823868400,2.850868408203125,29.15999984741211,25.799999237060547,-16.920000076293945
1759865030844010000,2.871010009765625,29.34000015258789,25.439998626708984,-16.619998931884766
1759865030854050300,2.88105029296875,29.760000228881836,25.3799991607666,-17.15999984741211
1759865030864151600,2.891151611328125,30.059999465942383,25.619998931884766,-16.739999771118164
1759865030924515300,2.951515380859375,29.15999984741211,25.920000076293945,-16.920000076293945
1759865030934586400,2.96158642578125,29.459999084472656,25.739999771118164,-16.920000076293945
1759865030954666800,2.981666748046875,29.399999618530273,24.65999984741211,-17.8799991607666
1759865030974808300,3.001808349609375,28.85999870300293,24.65999984741211,-17.579999923706055
1759865030984909800,3.011909912109375,28.260000228881836,24.65999984741211,-17.399999618530273
1759865030995011000,3.022010986328125,28.68000030517578,25.31999969482422,-16.68000030517578
1759865031005112300,3.0321123046875,28.3799991607666,25.799999237060547,-17.15999984741211
1759865031015213600,3.042213623046875,28.260000228881836,25.439998626708984,-17.34000015258789
1759865031025315000,3.052315185546875,28.559999465942383,25.739999771118164,-17.279998779296875
1759865031035416300,3.062416259765625,28.559999465942383,25.799999237060547,-16.85999870300293
1759865031045487000,3.072487060546875,29.15999984741211,25.3799991607666,-16.979999542236328
1759865031055558000,3.082557861328125,29.34000015258789,25.799999237060547,-16.619998931884766
1759865031065628700,3.092628662109375,30.17999839782715,25.439998626708984,-17.520000457763672
1759865031075699500,3.102699462890625,29.69999885559082,25.139999389648438,-18.239999771118164
1759865031115982800,3.14298291015625,29.15999984741211,25.5,-17.219999313354492
1759865031126084000,3.153083984375,29.34000015258789,25.5,-17.03999900817871
1759865031136155000,3.16315478515625,29.81999969482422,26.03999900817871,-16.619998931884766
1759865031146195200,3.1731953125,29.8799991607666,26.219999313354492,-16.739999771118164
1759865031156296400,3.18329638671875,29.69999885559082,26.03999900817871,-17.69999885559082
1759865031166367200,3.1933671875,29.639999389648438,25.85999870300293,-18.059999465942383
1759865031186448000,3.21344775390625,28.01999855041504,25.139999389648438,-18.53999900817871
1759865031206620000,3.233619873046875,27.53999900817871,25.139999389648438,-17.279998779296875
1759865031216660200,3.24366015625,28.01999855041504,25.260000228881836,-17.219999313354492
1759865031226731000,3.25373095703125,28.439998626708984,25.5,-17.219999313354492
1759865031236832300,3.263832275390625,28.68000030517578,25.619998931884766,-17.100000381469727
1759865031246933800,3.273933837890625,29.15999984741211,25.5,-17.15999984741211
1759865031257035000,3.284034912109375,28.85999870300293,25.079999923706055,-17.639999389648438
1759865031267075300,3.294075439453125,29.219999313354492,25.139999389648438,-17.34000015258789
1759865031307297500,3.334297607421875,29.03999900817871,25.31999969482422,-17.639999389648438
1759865031317368300,3.344368408203125,29.760000228881836,25.3799991607666,-17.03999900817871
1759865031327469600,3.354469482421875,30.65999984741211,25.559999465942383,-16.440000534057617
1759865031337540400,3.364540283203125,30.53999900817871,25.3799991607666,-16.260000228881836
1759865031347580700,3.37458056640625,30.959999084472656,25.920000076293945,-15.960000038146973
1759865031357682000,3.384681884765625,30.779998779296875,26.099998474121094,-15.960000038146973
1759865031367783200,3.394783203125,30.420000076293945,26.279998779296875,-15.899999618530273
1759865031387894300,3.414894287109375,30.53999900817871,25.559999465942383,-16.139999389648438
1759865031397995800,3.424995849609375,31.01999855041504,25.799999237060547,-15.65999984741211
1759865031408035800,3.435035888671875,31.260000228881836,25.619998931884766,-15.59999942779541
1759865031418106600,3.445106689453125,31.31999969482422,26.15999984741211,-15.239999771118164
1759865031428116500,3.455116455078125,31.01999855041504,25.799999237060547,-15.65999984741211
1759865031438217700,3.4652177734375,30.719999313354492,25.19999885559082,-16.139999389648438
1759865031448258000,3.475258056640625,30.65999984741211,25.31999969482422,-16.079999923706055
1759865031458298400,3.48529833984375,30.599998474121094,24.899999618530273,-16.260000228881836
1759865031468369200,3.495369140625,30.420000076293945,25.31999969482422,-16.020000457763672
1759865031508683000,3.53568310546875,29.639999389648438,26.219999313354492,-15.420000076293945
1759865031528794000,3.555794189453125,29.219999313354492,26.15999984741211,-15.899999618530273
1759865031548935700,3.575935791015625,29.639999389648438,26.51999855041504,-15.899999618530273
1759865031559006500,3.58600634765625,30.239999771118164,26.760000228881836,-15.59999942779541
1759865031569077200,3.5960771484375,30.059999465942383,25.799999237060547,-16.5
1759865031579017500,3.606017578125,30.17999839782715,25.920000076293945,-16.260000228881836
1759865031609229800,3.636229736328125,30.17999839782715,26.03999900817871,-16.139999389648438
1759865031619300600,3.646300537109375,29.8799991607666,25.979999542236328,-16.31999969482422
1759865031629371400,3.656371337890625,29.939998626708984,25.85999870300293,-15.899999618530273
1759865031639473000,3.666472900390625,30.239999771118164,25.739999771118164,-16.5
1759865031649543700,3.676543701171875,30,25.619998931884766,-17.03999900817871
1759865031659614500,3.686614501953125,30.17999839782715,25.260000228881836,-17.219999313354492
1759865031669685200,3.696685302734375,29.939998626708984,25.5,-17.34000015258789
1759865031679786500,3.706786376953125,29.81999969482422,25.619998931884766,-16.920000076293945
1759865031689826800,3.716826904296875,30.17999839782715,25.559999465942383,-16.440000534057617
1759865031720039200,3.7470390625,30.599998474121094,25.979999542236328,-16.139999389648438
1759865031740211500,3.76721142578125,30.719999313354492,25.799999237060547,-16.139999389648438
1759865031750251500,3.77725146484375,31.01999855041504,25.85999870300293,-15.839999198913574
1759865031760322300,3.787322265625,30.959999084472656,25.68000030517578,-16.68000030517578
1759865031770393300,3.797393310546875,30.119998931884766,25.739999771118164,-16.5
1759865031780494600,3.80749462890625,30.17999839782715,25.85999870300293,-16.020000457763672
1759865031810737400,3.8377373046875,31.139999389648438,25.68000030517578,-16.619998931884766
1759865031820777700,3.84777783203125,30.779998779296875,25.31999969482422,-16.85999870300293
1759865031830879000,3.85787890625,30.35999870300293,25.559999465942383,-16.020000457763672
1759865031840949800,3.86794970703125,30.35999870300293,25.739999771118164,-15.719999313354492
1759865031851020500,3.8780205078125,30.35999870300293,26.099998474121094,-15.239999771118164
1759865031861122000,3.8881220703125,30.599998474121094,26.639999389648438,-15.119999885559082
1759865031871223300,3.898223388671875,30.84000015258789,26.639999389648438,-15.479999542236328
1759865031881263600,3.908263671875,30.479999542236328,26.579999923706055,-15.359999656677246
1759865031891364900,3.91836474609375,30.84000015258789,26.459999084472656,-15.719999313354492
1759865031921638400,3.948638427734375,30.779998779296875,26.939998626708984,-15.719999313354492
1759865031931709200,3.958709228515625,29.939998626708984,26.760000228881836,-15.719999313354492
1759865031941749500,3.96874951171875,29.939998626708984,26.639999389648438,-15.179999351501465
1759865031951820300,3.9788203125,29.81999969482422,26.279998779296875,-15
1759865031961891000,3.98889111328125,29.8799991607666,26.51999855041504,-14.399999618530273
1759865031971961900,3.9989619140625,30.65999984741211,26.639999389648438,-13.859999656677246
1759865031992073000,4.019072998046875,31.439998626708984,25.739999771118164,-13.739999771118164
1759865032012214500,4.039214599609375,31.739999771118164,25.619998931884766,-12.84000015258789
1759865032032356000,4.059356201171875,31.979999542236328,25.260000228881836,-12.179999351501465
1759865032042427000,4.069427001953125,32.63999938964844,24.35999870300293,-12.59999942779541
1759865032062629600,4.089629638671875,33.47999954223633,23.69999885559082,-12.59999942779541
1759865032072731000,4.09973095703125,33.779998779296875,23.34000015258789,-11.9399995803833
1759865032082771200,4.109771240234375,33.47999954223633,22.979999542236328,-11.880000114440918
1759865032092842000,4.119842041015625,33.36000061035156,22.5,-11.519999504089355
1759865032112953000,4.139953125,33.84000015258789,21.719999313354492,-11.219999313354492
1759865032133064200,4.160064208984375,35.040000915527344,20.81999969482422,-11.460000038146973
1759865032143135000,4.170135009765625,34.97999954223633,20.639999389648438,-12.059999465942383
1759865032153236200,4.180236328125,35.040000915527344,21,-12.119999885559082
1759865032163307000,4.19030712890625,34.619998931884766,21.53999900817871,-10.559999465942383
1759865032173377800,4.200377685546875,33.779998779296875,21.119998931884766,-11.279999732971191
1759865032183418000,4.210418212890625,33.71999740600586,21.239999771118164,-10.319999694824219
1759865032193489000,4.220489013671875,33.84000015258789,20.69999885559082,-10.079999923706055
1759865032223762400,4.250762451171875,34.380001068115234,20.15999984741211,-9.960000038146973
1759865032233833200,4.260833251953125,34.86000061035156,20.579999923706055,-9.239999771118164
1759865032243904000,4.270904052734375,35.52000045776367,20.520000457763672,-8.279999732971191
1759865032253944300,4.2809443359375,35.880001068115234,20.459999084472656,-7.799999713897705
1759865032264015000,4.29101513671875,35.7599983215332,20.279998779296875,-7.859999656677246
1759865032274055400,4.301055419921875,35.15999984741211,19.979999542236328,-8.34000015258789
1759865032284156700,4.31115673828125,34.73999786376953,19.68000030517578,-9.239999771118164
1759865032294258000,4.3212578125,34.2599983215332,19.739999771118164,-9.420000076293945
1759865032334602200,4.361602294921875,33.779998779296875,20.579999923706055,-9.779999732971191
1759865032344673000,4.371673095703125,33.47999954223633,20.69999885559082,-9.899999618530273
1759865032354743800,4.381743896484375,33.89999771118164,21.119998931884766,-9.779999732971191
1759865032364814600,4.391814697265625,34.31999969482422,21,-9.59999942779541
1759865032374885400,4.401885498046875,34.68000030517578,21.420000076293945,-8.460000038146973
1759865032384925700,4.41192578125,34.91999816894531,21.299999237060547,-8.039999961853027
1759865032395027000,4.42202685546875,34.619998931884766,21.18000030517578,-7.679999828338623
1759865032435279600,4.462279541015625,35.34000015258789,20.639999389648438,-7.919999599456787
1759865032445350400,4.472350341796875,35.81999969482422,20.520000457763672,-7.079999923706055
1759865032455421200,4.482421142578125,35.57999801635742,20.579999923706055,-6.839999675750732
1759865032465461500,4.49246142578125,35.7599983215332,20.520000457763672,-6.71999979019165
1759865032475501800,4.502501708984375,35.880001068115234,20.520000457763672,-6.420000076293945
1759865032485572600,4.512572509765625,36.05999755859375,21,-6.659999847412109
1759865032495643400,4.522643310546875,35.880001068115234,21.899999618530273,-6.599999904632568
1759865032556068400,4.583068359375,32.279998779296875,25.01999855041504,-6.779999732971191
1759865032566108700,4.593108642578125,31.920000076293945,25.619998931884766,-6.71999979019165
1759865032576179500,4.603179443359375,30.959999084472656,26.760000228881836,-5.940000057220459
1759865032586280700,4.61328076171875,29.69999885559082,27.959999084472656,-4.679999828338623
1759865032596321000,4.623321044921875,29.03999900817871,29.279998779296875,-3.7799999713897705
1759865032606391800,4.633391845703125,27.84000015258789,30.719999313354492,-2.0999999046325684
1759865032636604200,4.663604248046875,25.799999237060547,33.599998474121094,1.6200000047683716
1759865032646705400,4.673705322265625,25.01999855041504,34.2599983215332,2.5199999809265137
1759865032656745700,4.683745849609375,24,34.2599983215332,3.240000009536743
1759865032666816500,4.69381640625,23.51999855041504,35.15999984741211,3.8399999141693115
1759865032676887300,4.70388720703125,22.559999465942383,35.52000045776367,4.799999713897705
1759865032686988800,4.71398876953125,22.020000457763672,35.7599983215332,5.819999694824219
1759865032697059600,4.7240595703125,21.119998931884766,36.41999816894531,6.960000038146973
1759865032707099600,4.734099609375,20.03999900817871,36.41999816894531,7.859999656677246
1759865032717170700,4.744170654296875,19.3799991607666,36.71999740600586,8.639999389648438
1759865032747352600,4.7743525390625,16.619998931884766,37.13999938964844,11.219999313354492
1759865032777534500,4.804534423828125,15.719999313354492,37.20000076293945,13.739999771118164
1759865032787605200,4.814605224609375,15.239999771118164,37.68000030517578,13.979999542236328
1759865032797676000,4.824676025390625,15.119999885559082,37.5,14.460000038146973
1759865032807746800,4.834746826171875,15,37.02000045776367,14.819999694824219
1759865032817817600,4.844817626953125,14.279999732971191,36.959999084472656,15.059999465942383
1759865032827827200,4.8548271484375,14.09999942779541,36.41999816894531,15.479999542236328
1759865032858100700,4.885100830078125,11.819999694824219,37.20000076293945,16.68000030517578
1759865032868110600,4.895110595703125,11.9399995803833,37.13999938964844,16.440000534057617
1759865032878181400,4.905181396484375,11.75999927520752,37.619998931884766,16.920000076293945
1759865032888252200,4.915252197265625,12.239999771118164,37.91999816894531,16.920000076293945
1759865032898353400,4.925353515625,12.65999984741211,37.79999923706055,16.85999870300293
1759865032908393700,4.935393798828125,12.059999465942383,38.21999740600586,17.279998779296875
1759865032918495000,4.945494873046875,12.300000190734863,38.21999740600586,16.440000534057617
1759865032928565800,4.955565673828125,12.300000190734863,37.86000061035156,15.839999198913574
1759865032948676900,4.9756767578125,12.59999942779541,37.20000076293945,14.34000015258789
1759865032958778000,4.985778076171875,12.84000015258789,37.13999938964844,13.799999237060547
1759865032968849200,4.99584912109375,13.619999885559082,37.5,14.039999961853027
1759865032978920000,5.005919921875,15.059999465942383,37.86000061035156,13.559999465942383
1759865032988960000,5.0159599609375,16.079999923706055,37.86000061035156,13.319999694824219
1759865032999061500,5.0260615234375,17.219999313354492,38.15999984741211,13.619999885559082
1759865033009162800,5.036162841796875,17.940000534057617,37.79999923706055,12.539999961853027
1759865033019233500,5.046233642578125,18.899999618530273,37.79999923706055,12.359999656677246
1759865033029273900,5.05627392578125,19.85999870300293,37.86000061035156,12.059999465942383
1759865033059516700,5.0865166015625,21.899999618530273,35.52000045776367,11.75999927520752
1759865033079627800,5.106627685546875,25.139999389648438,32.880001068115234,11.279999732971191
1759865033089698600,5.116698486328125,26.81999969482422,31.439998626708984,11.219999313354492
1759865033099739000,5.12673876953125,28.3799991607666,29.279998779296875,10.920000076293945
1759865033109840100,5.136840087890625,30.599998474121094,26.459999084472656,10.800000190734863
1759865033119880400,5.14688037109375,31.67999839782715,23.51999855041504,10.920000076293945
1759865033129951200,5.156951171875,33.36000061035156,20.15999984741211,11.699999809265137
1759865033140052700,5.167052734375,34.86000061035156,16.799999237060547,12.719999313354492
1759865033160163800,5.187163818359375,37.31999969482422,12.059999465942383,13.979999542236328
1759865033190345700,5.217345703125,38.040000915527344,11.460000038146973,13.619999885559082
1759865033220588500,5.247588623046875,37.07999801635742,13.559999465942383,14.15999984741211
1759865033230659300,5.257659423828125,36.89999771118164,14.279999732971191,14.75999927520752
1759865033240699600,5.26769970703125,36,14.34000015258789,14.699999809265137
1759865033260810800,5.287810791015625,35.279998779296875,13.859999656677246,14.579999923706055
1759865033280952300,5.307952392578125,34.619998931884766,13.619999885559082,14.639999389648438
1759865033311195100,5.338195068359375,34.86000061035156,12.65999984741211,16.3799991607666
1759865033321266000,5.348265869140625,34.73999786376953,12.239999771118164,16.139999389648438
1759865033331306200,5.35830615234375,34.619998931884766,12.119999885559082,16.3799991607666
1759865033341407700,5.36840771484375,34.20000076293945,11.34000015258789,15.539999961853027
1759865033371650600,5.398650634765625,33.47999954223633,10.679999351501465,15.119999885559082
1759865033381721300,5.408721435546875,33.540000915527344,11.579999923706055,16.19999885559082
1759865033391822600,5.418822509765625,33.779998779296875,12.65999984741211,16.19999885559082
1759865033401893400,5.428893310546875,34.13999938964844,13.739999771118164,15.899999618530273
1759865033411995000,5.438994873046875,34.380001068115234,14.519999504089355,16.260000228881836
1759865033432136400,5.459136474609375,33.540000915527344,15.719999313354492,15.420000076293945
1759865033442207200,5.469207275390625,32.880001068115234,16.31999969482422,15.839999198913574
1759865033452278000,5.479278076171875,32.70000076293945,16.68000030517578,15.899999618530273
1759865033492622300,5.519622314453125,33.540000915527344,16.5,15
1759865033502723600,5.5297236328125,33.84000015258789,16.440000534057617,15.299999237060547
1759865033543037200,5.570037109375,33.36000061035156,17.639999389648438,12.84000015258789
1759865033563209500,5.59020947265625,33.599998474121094,17.69999885559082,11.460000038146973
1759865033573280300,5.6002802734375,33.540000915527344,18,11.039999961853027
1759865033583351000,5.61035107421875,33.959999084472656,18.65999984741211,11.09999942779541
1759865033593452300,5.620452392578125,34.79999923706055,18.84000015258789,10.679999351501465
1759865033603523000,5.630523193359375,34.86000061035156,19.5,10.019999504089355
1759865033613624300,5.640624267578125,35.040000915527344,19.439998626708984,8.519999504089355
1759865033623725800,5.650725830078125,35.15999984741211,19.68000030517578,7.919999599456787
1759865033633796600,5.660796630859375,35.21999740600586,20.219999313354492,7.37999963760376
1759865033643867400,5.670867431640625,35.939998626708984,19.979999542236328,6.839999675750732
1759865033653968600,5.68096875,35.939998626708984,20.459999084472656,7.259999752044678
1759865033684211500,5.71121142578125,34.97999954223633,19.799999237060547,6.239999771118164
1759865033724555800,5.7515556640625,36.23999786376953,19.079999923706055,3
1759865033734596000,5.76159619140625,36.41999816894531,18.65999984741211,2.0399999618530273
1759865033744667000,5.7716669921875,36.36000061035156,18.600000381469727,1.3799999952316284
1759865033754737700,5.781737548828125,36.540000915527344,18.719999313354492,0.7799999713897705
1759865033815223600,5.8422236328125,36.65999984741211,19.139999389648438,-3.8999998569488525
1759865033825294300,5.85229443359375,36.29999923706055,19.260000228881836,-4.139999866485596
1759865033835365000,5.862365234375,36.779998779296875,19.559999465942383,-3.9599997997283936
1759865033845436000,5.872435791015625,37.380001068115234,19.260000228881836,-4.559999942779541
1759865033855537200,5.882537109375,37.07999801635742,18.899999618530273,-5.21999979019165
1759865033875648300,5.902648193359375,36.18000030517578,18.420000076293945,-6.239999771118164
1759865033905860900,5.93286083984375,36.23999786376953,18.420000076293945,-6.899999618530273
1759865033915901000,5.94290087890625,36.65999984741211,18.299999237060547,-7.559999942779541
1759865033926002400,5.95300244140625,36.540000915527344,18.479999542236328,-8.039999961853027
1759865033936042800,5.963042724609375,36.29999923706055,18,-8.760000228881836
1759865033946113500,5.973113525390625,36.23999786376953,17.579999923706055,-9.420000076293945
1759865033956214800,5.98321484375,36.18000030517578,17.639999389648438,-9.779999732971191
1759865033966285600,5.99328564453125,36.119998931884766,18.18000030517578,-9.65999984741211
1759865034006599200,6.03359912109375,37.380001068115234,17.03999900817871,-11.460000038146973
1759865034036811800,6.063811767578125,37.79999923706055,16.020000457763672,-12.059999465942383
1759865034046851800,6.073851806640625,37.619998931884766,15.899999618530273,-11.75999927520752
1759865034056953300,6.083953369140625,37.02000045776367,15.779999732971191,-12.059999465942383
1759865034067024100,6.094024169921875,36.41999816894531,15.899999618530273,-11.75999927520752
1759865034107276800,6.13427685546875,35.279998779296875,15.299999237060547,-13.679999351501465
1759865034117378000,6.1443779296875,36.05999755859375,16.19999885559082,-13.139999389648438
1759865034127448800,6.15444873046875,36.18000030517578,15.960000038146973,-13.380000114440918
1759865034137519600,6.16451953125,36.41999816894531,15.960000038146973,-14.09999942779541
1759865034147560000,6.174559814453125,36.05999755859375,15.839999198913574,-14.880000114440918
1759865034157661200,6.1846611328125,35.81999969482422,15.839999198913574,-15.779999732971191
1759865034167732000,6.19473193359375,35.57999801635742,16.079999923706055,-15.839999198913574
1759865034187873800,6.214873779296875,35.81999969482422,16.5,-14.519999504089355
1759865034208045800,6.2350458984375,35.81999969482422,16.559999465942383,-13.319999694824219
1759865034218116600,6.24511669921875,35.70000076293945,16.3799991607666,-13.799999237060547
1759865034228187400,6.2551875,36,16.260000228881836,-14.639999389648438
1759865034238227700,6.265227783203125,36.599998474121094,15.960000038146973,-14.519999504089355
1759865034248298500,6.275298583984375,36.599998474121094,16.559999465942383,-14.219999313354492
1759865034258369300,6.285369384765625,36.84000015258789,16.799999237060547,-13.619999885559082
1759865034268348700,6.2953486328125,36.599998474121094,17.03999900817871,-13.079999923706055
1759865034288490200,6.315490234375,36.89999771118164,17.100000381469727,-13.4399995803833
1759865034308540200,6.3355400390625,36,17.15999984741211,-13.380000114440918
1759865034318641400,6.345641357421875,35.63999938964844,17.34000015258789,-12.84000015258789
1759865034328743000,6.355742919921875,35.459999084472656,17.520000457763672,-12.899999618530273
1759865034338844200,6.36584423828125,36.18000030517578,17.69999885559082,-12.59999942779541
1759865034348915000,6.3759150390625,36.36000061035156,17.579999923706055,-12.300000190734863
1759865034358985700,6.38598583984375,36.47999954223633,17.940000534057617,-12
1759865034369056500,6.396056396484375,36.47999954223633,18,-11.75999927520752
1759865034389198000,6.416197998046875,35.81999969482422,18.600000381469727,-11.219999313354492
1759865034399268900,6.426268798828125,36.05999755859375,18.239999771118164,-11.219999313354492
1759865034409339600,6.436339599609375,35.939998626708984,18.059999465942383,-10.920000076293945
1759865034419380000,6.4463798828125,36.119998931884766,18.18000030517578,-10.920000076293945
1759865034429420300,6.456420166015625,36.65999984741211,17.81999969482422,-11.219999313354492
1759865034439491000,6.466490966796875,36.29999923706055,18.059999465942383,-11.09999942779541
1759865034449561900,6.476561767578125,36.540000915527344,18.18000030517578,-11.34000015258789
1759865034459632600,6.486632568359375,36.41999816894531,18,-11.579999923706055
1759865034469703400,6.496703369140625,36.18000030517578,18.420000076293945,-11.75999927520752
1759865034479805000,6.506804931640625,35.34000015258789,18.18000030517578,-12.119999885559082
1759865034510017300,6.537017333984375,34.439998626708984,18.059999465942383,-12.65999984741211
1759865034520027100,6.547027099609375,34.97999954223633,18.479999542236328,-12.539999961853027
1759865034530098000,6.557097900390625,35.099998474121094,18.059999465942383,-12.65999984741211
1759865034540168700,6.567168701171875,35.459999084472656,17.940000534057617,-12.359999656677246
1759865034550209000,6.577208984375,35.63999938964844,17.940000534057617,-12.479999542236328
1759865034560279800,6.58727978515625,35.459999084472656,17.459999084472656,-12.179999351501465
1759865034570381000,6.597381103515625,35.57999801635742,17.399999618530273,-12.420000076293945
1759865034580451800,6.607451904296875,35.57999801635742,17.34000015258789,-12.65999984741211
1759865034600563000,6.62756298828125,36.36000061035156,17.219999313354492,-13.380000114440918
1759865034620674000,6.647674072265625,36.41999816894531,17.579999923706055,-12.300000190734863
1759865034630714400,6.65771435546875,36.29999923706055,17.639999389648438,-12.119999885559082
1759865034640815600,6.667815673828125,35.81999969482422,17.760000228881836,-11.819999694824219
1759865034650886400,6.677886474609375,35.52000045776367,17.69999885559082,-11.579999923706055
1759865034660987600,6.687987548828125,35.459999084472656,17.15999984741211,-12.899999618530273
1759865034671058400,6.698058349609375,35.63999938964844,16.31999969482422,-13.4399995803833
1759865034681098800,6.7080986328125,35.70000076293945,15.899999618530273,-13.319999694824219
1759865034711341800,6.738341796875,36.29999923706055,14.9399995803833,-14.09999942779541
1759865034731452700,6.75845263671875,36.41999816894531,14.639999389648438,-13.739999771118164
1759865034741523700,6.768523681640625,36.36000061035156,14.460000038146973,-13.559999465942383
1759865034751594500,6.778594482421875,36.36000061035156,13.739999771118164,-14.519999504089355
1759865034761665300,6.788665283203125,36.540000915527344,13.319999694824219,-15.65999984741211
1759865034771705600,6.79870556640625,36.36000061035156,13.019999504089355,-16.020000457763672
1759865034781806800,6.808806884765625,36.29999923706055,13.25999927520752,-16.559999465942383
1759865034791877600,6.818877685546875,36.41999816894531,13.619999885559082,-16.619998931884766
1759865034822090000,6.849090087890625,36.119998931884766,15.539999961853027,-15.779999732971191
1759865034832191200,6.859191162109375,35.880001068115234,16.020000457763672,-14.9399995803833
1759865034842231600,6.8692314453125,35.57999801635742,16.31999969482422,-14.819999694824219
1759865034852302300,6.87930224609375,35.81999969482422,16.68000030517578,-14.639999389648438
1759865034862403800,6.88940380859375,35.57999801635742,16.920000076293945,-14.399999618530273
1759865034872474600,6.899474609375,35.57999801635742,16.85999870300293,-15.179999351501465
1759865034882545400,6.90954541015625,35.459999084472656,17.03999900817871,-15
1759865034892585700,6.919585693359375,35.63999938964844,16.85999870300293,-15
1759865034902656500,6.929656494140625,36.05999755859375,17.03999900817871,-14.9399995803833
1759865034932868900,6.959868896484375,35.39999771118164,16.559999465942383,-16.31999969482422
1759865034942909200,6.9699091796875,34.97999954223633,16.19999885559082,-16.739999771118164
1759865034952980000,6.97997998046875,35.21999740600586,16.5,-16.260000228881836
1759865034963081200,6.990081298828125,35.70000076293945,16.440000534057617,-16.260000228881836
1759865034973152000,7.000152099609375,35.7599983215332,16.739999771118164,-15.239999771118164
1759865034983192300,7.0101923828125,35.63999938964844,17.03999900817871,-14.819999694824219
1759865034993232600,7.020232666015625,35.81999969482422,16.85999870300293,-14.75999927520752
1759865035003334000,7.030333984375,35.57999801635742,17.459999084472656,-13.679999351501465
1759865035033546200,7.060546142578125,35.040000915527344,17.219999313354492,-14.9399995803833
1759865035043617000,7.070616943359375,34.619998931884766,17.100000381469727,-15.479999542236328
1759865035053687800,7.080687744140625,34.380001068115234,17.279998779296875,-15.479999542236328
1759865035063789300,7.090789306640625,34.619998931884766,17.81999969482422,-15.359999656677246
1759865035073860000,7.100860107421875,34.439998626708984,18.239999771118164,-15.239999771118164
1759865035094032100,7.1210322265625,34.55999755859375,18.239999771118164,-15.65999984741211
1759865035104103000,7.13110302734375,34.2599983215332,17.940000534057617,-16.440000534057617
1759865035114143200,7.141143310546875,34.02000045776367,17.8799991607666,-16.260000228881836
1759865035124244500,7.151244384765625,34.07999801635742,17.940000534057617,-16.85999870300293
1759865035134284800,7.161284912109375,34.380001068115234,18.299999237060547,-16.739999771118164
1759865035144386000,7.171385986328125,34.619998931884766,18,-17.03999900817871
1759865035154487600,7.181487548828125,34.619998931884766,18.299999237060547,-16.739999771118164
1759865035164588800,7.1915888671875,34.55999755859375,18.059999465942383,-16.5
1759865035174659600,7.20165966796875,34.439998626708984,17.639999389648438,-16.799999237060547
1759865035184700000,7.211699951171875,34.13999938964844,18,-15.839999198913574
1759865035194740200,7.221740234375,34.619998931884766,17.639999389648438,-16.079999923706055
1759865035204811000,7.23181103515625,34.439998626708984,17.459999084472656,-15.59999942779541
1759865035214881800,7.2418818359375,34.2599983215332,17.399999618530273,-15.779999732971191
1759865035255134500,7.282134521484375,34.55999755859375,16.920000076293945,-15.539999961853027
1759865035285346800,7.312346923828125,35.15999984741211,17.69999885559082,-15.539999961853027
1759865035295387100,7.32238720703125,34.97999954223633,17.69999885559082,-15.539999961853027
1759865035305458000,7.3324580078125,35.099998474121094,18.059999465942383,-14.399999618530273
1759865035315559200,7.34255908203125,35.39999771118164,17.8799991607666,-14.579999923706055
1759865035325630000,7.3526298828125,34.79999923706055,17.399999618530273,-15.179999351501465
1759865035355811800,7.382811767578125,35.52000045776367,17.219999313354492,-16.139999389648438
1759865035365913300,7.392913330078125,35.880001068115234,17.639999389648438,-15.479999542236328
1759865035375953400,7.402953369140625,35.459999084472656,17.579999923706055,-15.299999237060547
1759865035386055000,7.413054931640625,34.86000061035156,17.579999923706055,-15.299999237060547
1759865035396125700,7.423125732421875,34.20000076293945,17.100000381469727,-15.059999465942383
1759865035406196500,7.433196533203125,34.20000076293945,17.399999618530273,-15.359999656677246
1759865035416267300,7.443267333984375,34.55999755859375,17.8799991607666,-15.179999351501465
1759865035426338000,7.453338134765625,34.619998931884766,18.119998931884766,-15.119999885559082
1759865035436378400,7.46337841796875,35.21999740600586,18.059999465942383,-15.420000076293945
1759865035486762800,7.5137626953125,35.63999938964844,18.35999870300293,-16.440000534057617
1759865035496864300,7.5238642578125,34.619998931884766,18.65999984741211,-16.619998931884766
1759865035506965500,7.533965576171875,34.20000076293945,18.779998779296875,-16.68000030517578
1759865035517005800,7.544005859375,33.71999740600586,18.779998779296875,-16.3799991607666
1759865035527015400,7.554015380859375,33.41999816894531,18.239999771118164,-16.5
1759865035537086500,7.56408642578125,33.779998779296875,17.8799991607666,-16.079999923706055
1759865035567298800,7.594298828125,34.20000076293945,17.520000457763672,-16.85999870300293
1759865035577369600,7.60436962890625,33.84000015258789,17.34000015258789,-17.399999618530273
1759865035587440400,7.6144404296875,33.29999923706055,17.03999900817871,-17.760000228881836
1759865035597511200,7.62451123046875,32.939998626708984,17.34000015258789,-17.34000015258789
1759865035607582000,7.63458203125,33.29999923706055,17.639999389648438,-17.279998779296875
1759865035617683200,7.64468310546875,33.29999923706055,18.18000030517578,-17.15999984741211
1759865035627754000,7.65475390625,33.47999954223633,18.239999771118164,-17.399999618530273
1759865035637824800,7.66482470703125,33.540000915527344,18.65999984741211,-17.219999313354492
1759865035668067800,7.69506787109375,33.29999923706055,18.959999084472656,-17.279998779296875
1759865035678138600,7.705138671875,32.880001068115234,19.260000228881836,-17.34000015258789
1759865035688209400,7.71520947265625,33.18000030517578,19.5,-17.34000015258789
1759865035698249700,7.725249755859375,33,19.739999771118164,-17.399999618530273
1759865035718360800,7.74536083984375,32.81999969482422,19.68000030517578,-18.18000030517578
1759865035728431600,7.755431640625,31.67999839782715,19.68000030517578,-18.299999237060547
1759865035738502400,7.76550244140625,31.67999839782715,19.799999237060547,-18.059999465942383
1759865035758674400,7.78567431640625,32.040000915527344,19.85999870300293,-17.520000457763672
1759865035768745200,7.7957451171875,31.979999542236328,19.3799991607666,-17.8799991607666
1759865035798988300,7.82598828125,31.920000076293945,18.65999984741211,-17.579999923706055
1759865035809059000,7.83605908203125,33,19.079999923706055,-17.03999900817871
1759865035819129900,7.8461298828125,33.36000061035156,19.079999923706055,-17.15999984741211
1759865035829200600,7.85620068359375,33.84000015258789,19.31999969482422,-16.85999870300293
1759865035839271400,7.866271484375,34.13999938964844,19.079999923706055,-16.139999389648438
1759865035879554600,7.906554443359375,34.20000076293945,18.53999900817871,-16.739999771118164
1759865035889625300,7.916625244140625,34.20000076293945,18.420000076293945,-16.440000534057617
1759865035899696000,7.926696044921875,34.5,18.299999237060547,-16.31999969482422
1759865035909736400,7.936736328125,34.619998931884766,18.299999237060547,-16.079999923706055
1759865035919807200,7.94680712890625,34.380001068115234,18.53999900817871,-15.539999961853027
1759865035929878000,7.9568779296875,34.439998626708984,18.53999900817871,-15.779999732971191
1759865035939948800,7.96694873046875,34.91999816894531,18.479999542236328,-15.899999618530273
1759865035949989000,7.976989013671875,34.97999954223633,18.18000030517578,-15.719999313354492
1759865035980262700,8.0072626953125,34.79999923706055,18.299999237060547,-15.899999618530273
1759865035990272300,8.017272216796876,34.91999816894531,18.479999542236328,-16.19999885559082
1759865036000373800,8.027373779296875,34.97999954223633,18.779998779296875,-15.65999984741211
1759865036020576300,8.047576171875,35.279998779296875,17.760000228881836,-17.100000381469727
1759865036030586000,8.057586181640625,34.97999954223633,18.420000076293945,-16.079999923706055
1759865036040657000,8.067656982421875,34.68000030517578,18.119998931884766,-16.799999237060547
1759865036050727700,8.077727783203125,34.2599983215332,17.760000228881836,-17.760000228881836
1759865036080940000,8.10793994140625,34.2599983215332,16.31999969482422,-19.5
1759865036091010800,8.1180107421875,33.959999084472656,16.739999771118164,-18.420000076293945
1759865036101112300,8.1281123046875,34.31999969482422,17.219999313354492,-17.760000228881836
1759865036111152400,8.13815234375,34.68000030517578,17.459999084472656,-17.34000015258789
1759865036121223400,8.148223388671875,34.73999786376953,18.059999465942383,-17.03999900817871
1759865036131294200,8.158294189453125,35.279998779296875,18.18000030517578,-16.739999771118164
1759865036141334300,8.168334228515626,34.79999923706055,17.760000228881836,-17.100000381469727
1759865036151374600,8.17837451171875,34.02000045776367,18,-16.739999771118164
1759865036191688400,8.2186884765625,35.040000915527344,18.899999618530273,-16.68000030517578
1759865036201759200,8.22875927734375,34.5,19.020000457763672,-16.559999465942383
1759865036211830000,8.238830078125,34.2599983215332,18.53999900817871,-17.279998779296875
1759865036221870300,8.248870361328125,33.47999954223633,18.959999084472656,-17.100000381469727
1759865036231941000,8.258941162109375,33,18.899999618530273,-17.459999084472656
1759865036242012000,8.269011962890625,33.23999786376953,18.65999984741211,-17.639999389648438
1759865036252082700,8.279082763671875,33.599998474121094,18.84000015258789,-17.579999923706055
1759865036262153500,8.289153564453125,33.41999816894531,18.600000381469727,-17.940000534057617
1759865036302436600,8.3294365234375,33.599998474121094,18.779998779296875,-17.940000534057617
1759865036312507400,8.33950732421875,33.779998779296875,19.020000457763672,-17.579999923706055
1759865036322578200,8.349578125,33.41999816894531,18.53999900817871,-17.81999969482422
1759865036342658800,8.369658935546875,33.84000015258789,17.8799991607666,-18
1759865036352729600,8.3797294921875,34.13999938964844,17.8799991607666,-17.8799991607666
1759865036382842000,8.409842041015626,33.41999816894531,17.639999389648438,-18.119998931884766
1759865036392913000,8.419912841796876,33.71999740600586,17.34000015258789,-18.35999870300293
1759865036403014100,8.43001416015625,34.439998626708984,17.219999313354492,-17.940000534057617
1759865036413085000,8.4400849609375,34.55999755859375,17.81999969482422,-16.3799991607666
1759865036423155700,8.45015576171875,35.279998779296875,17.639999389648438,-16.19999885559082
1759865036433226500,8.4602265625,34.73999786376953,17.520000457763672,-16.19999885559082
1759865036443297300,8.47029736328125,34.55999755859375,17.459999084472656,-16.920000076293945
1759865036453368000,8.4803681640625,34.97999954223633,17.15999984741211,-17.100000381469727
1759865036463438800,8.49043896484375,34.97999954223633,17.15999984741211,-17.219999313354492
1759865036483611100,8.510611083984376,35.099998474121094,18.059999465942383,-15.65999984741211
1759865036493712400,8.52071240234375,34.73999786376953,17.8799991607666,-16.31999969482422
1759865036503783200,8.530783203125,34.439998626708984,18,-16.31999969482422
1759865036513854000,8.54085400390625,33.779998779296875,17.520000457763672,-17.219999313354492
1759865036523924700,8.5509248046875,33.119998931884766,17.15999984741211,-17.520000457763672
1759865036534026200,8.561026123046876,32.57999801635742,17.219999313354492,-17.15999984741211
1759865036544127500,8.57112744140625,32.880001068115234,17.459999084472656,-17.15999984741211
1759865036554198300,8.5811982421875,33.41999816894531,17.940000534057617,-16.619998931884766
1759865036564299500,8.591299560546876,34.20000076293945,17.8799991607666,-16.979999542236328
1759865036594542600,8.62154248046875,34.79999923706055,17.639999389648438,-17.940000534057617
1759865036604613400,8.63161328125,34.79999923706055,17.69999885559082,-18.600000381469727
1759865036614684200,8.64168408203125,34.68000030517578,18.119998931884766,-18.420000076293945
1759865036624755000,8.6517548828125,34.380001068115234,17.8799991607666,-18.420000076293945
1759865036634825700,8.66182568359375,34.13999938964844,18.239999771118164,-18.239999771118164
1759865036644896500,8.671896484375,33.71999740600586,18.479999542236328,-17.81999969482422
1759865036654967300,8.68196728515625,33.18000030517578,17.8799991607666,-18.18000030517578
1759865036665038000,8.6920380859375,33.05999755859375,17.579999923706055,-19.3799991607666
1759865036685179600,8.7121796875,33.119998931884766,16.979999542236328,-20.69999885559082
1759865036695281000,8.722281005859376,33.65999984741211,17.34000015258789,-20.399999618530273
1759865036705352000,8.73235205078125,33.47999954223633,17.219999313354492,-20.34000015258789
1759865036715422700,8.742422607421876,33.47999954223633,17.69999885559082,-19.739999771118164
1759865036725493500,8.752493408203126,33.23999786376953,17.940000534057617,-19.020000457763672
1759865036735594800,8.7625947265625,32.880001068115234,17.639999389648438,-19.5
1759865036745635000,8.772635009765626,32.70000076293945,17.520000457763672,-19.139999389648438
1759865036755675400,8.78267529296875,32.57999801635742,17.34000015258789,-19.3799991607666
1759865036765776600,8.792776611328126,32.57999801635742,17.219999313354492,-19.85999870300293
1759865036795928000,8.822927978515626,33.05999755859375,17.579999923706055,-20.520000457763672
1759865036806029300,8.833029296875,33.18000030517578,17.81999969482422,-20.219999313354492
1759865036816100000,8.84310009765625,33.29999923706055,18,-19.799999237060547
1759865036826201300,8.853201416015626,33.89999771118164,18.420000076293945,-19.799999237060547
1759865036836272000,8.863272216796876,34.20000076293945,18.35999870300293,-19.439998626708984
1759865036846373600,8.87337353515625,34.380001068115234,18.420000076293945,-19.31999969482422
1759865036856475000,8.883474853515626,34.20000076293945,18.35999870300293,-19.139999389648438
1759865036866545700,8.893545654296876,34.13999938964844,18.239999771118164,-18.53999900817871
1759865036876616400,8.903616455078126,33.89999771118164,18.84000015258789,-18
1759865036906828800,8.933828857421876,34.20000076293945,18.35999870300293,-18.420000076293945
1759865036916899600,8.943899658203126,34.2599983215332,17.69999885559082,-18.84000015258789
1759865036927001000,8.9540009765625,34.2599983215332,17.579999923706055,-18
1759865036937071900,8.96407177734375,34.07999801635742,17.34000015258789,-18.119998931884766
1759865036947142700,8.974142578125,34.2599983215332,16.979999542236328,-18.18000030517578
1759865036957244000,8.984243896484376,34.20000076293945,16.68000030517578,-18.059999465942383
1759865036967314700,8.994314697265626,34.380001068115234,16.619998931884766,-18.18000030517578
1759865036997527000,9.024527099609376,34.380001068115234,16.31999969482422,-18.65999984741211
1759865037007628500,9.034628662109375,34.79999923706055,16.19999885559082,-18.719999313354492
1759865037017699300,9.04469921875,34.79999923706055,16.68000030517578,-17.8799991607666
1759865037027770000,9.05477001953125,34.79999923706055,16.979999542236328,-17.639999389648438
1759865037037841000,9.0648408203125,34.68000030517578,17.219999313354492,-17.279998779296875
1759865037047911700,9.07491162109375,34.73999786376953,17.219999313354492,-17.279998779296875
1759865037057982500,9.084982421875,34.73999786376953,17.15999984741211,-17.279998779296875
1759865037068083700,9.095083740234376,34.5,17.34000015258789,-17.34000015258789
1759865037078185000,9.10518505859375,34.55999755859375,16.979999542236328,-17.69999885559082
1759865037098296000,9.125296142578126,34.2599983215332,16.739999771118164,-18.53999900817871
1759865037128508700,9.1555087890625,35.040000915527344,17.100000381469727,-18
1759865037138579500,9.165579345703126,35.21999740600586,17.34000015258789,-18.239999771118164
1759865037148680700,9.1756806640625,34.97999954223633,17.459999084472656,-18.420000076293945
1759865037158751500,9.18575146484375,34.86000061035156,17.69999885559082,-18.420000076293945
1759865037168852700,9.195852783203126,34.55999755859375,17.639999389648438,-18.779998779296875
1759865037178923500,9.205923583984376,34.5,17.69999885559082,-18.779998779296875
1759865037209135900,9.236135986328126,33.47999954223633,17.520000457763672,-19.799999237060547
1759865037219237400,9.2462373046875,33.65999984741211,17.520000457763672,-19.739999771118164
1759865037229247000,9.2562470703125,33.65999984741211,17.579999923706055,-19.739999771118164
1759865037239317800,9.26631787109375,34.5,18.119998931884766,-18.899999618530273
1759865037249388800,9.276388916015625,34.68000030517578,18.600000381469727,-18.420000076293945
1759865037259459600,9.28645947265625,33.89999771118164,18.239999771118164,-18.899999618530273
1759865037269530400,9.2965302734375,33.599998474121094,18.479999542236328,-19.3799991607666
1759865037279631600,9.306631591796876,32.81999969482422,17.940000534057617,-19.619998931884766
1759865037309813500,9.3368134765625,32.880001068115234,17.219999313354492,-19.619998931884766
1759865037319884300,9.34688427734375,33.540000915527344,17.219999313354492,-19.559999465942383
1759865037329924600,9.356924560546876,34.02000045776367,16.68000030517578,-19.619998931884766
1759865037340025900,9.36702587890625,34.5,17.15999984741211,-18.959999084472656
1759865037350127000,9.377127197265626,34.439998626708984,17.15999984741211,-18.959999084472656
1759865037360167400,9.38716748046875,33.599998474121094,16.979999542236328,-19.260000228881836
1759865037370238200,9.39723828125,33.23999786376953,17.520000457763672,-18.420000076293945
1759865037380309000,9.40730908203125,32.70000076293945,17.15999984741211,-18.299999237060547
1759865037390379800,9.4173798828125,32.939998626708984,16.920000076293945,-18.719999313354492
1759865037410521600,9.437521484375,33.41999816894531,16.979999542236328,-18.959999084472656
1759865037430693600,9.457693603515626,33.47999954223633,17.81999969482422,-18.600000381469727
1759865037440764400,9.467764404296876,33.65999984741211,17.8799991607666,-18.299999237060547
1759865037450835200,9.477835205078126,34.02000045776367,17.69999885559082,-18.239999771118164
1759865037460906000,9.487906005859376,34.5,17.520000457763672,-18.119998931884766
1759865037470915800,9.497915771484376,34.68000030517578,17.459999084472656,-17.639999389648438
1759865037481017000,9.50801708984375,34.20000076293945,16.920000076293945,-17.69999885559082
1759865037491057400,9.518057373046876,34.20000076293945,17.100000381469727,-17.639999389648438
1759865037511168500,9.53816845703125,34.07999801635742,16.68000030517578,-17.520000457763672
1759865037521269800,9.548269775390626,34.68000030517578,16.799999237060547,-17.579999923706055
1759865037531340500,9.558340576171876,34.619998931884766,16.31999969482422,-18.119998931884766
1759865037541411300,9.568411376953126,34.439998626708984,16.020000457763672,-18.239999771118164
1759865037551451600,9.57845166015625,34.02000045776367,16.260000228881836,-18.420000076293945
1759865037561492000,9.588491943359376,33.65999984741211,16.139999389648438,-18.059999465942383
1759865037571562800,9.598562744140626,33.65999984741211,16.139999389648438,-17.8799991607666
1759865037581664000,9.6086640625,33.599998474121094,16.139999389648438,-18.119998931884766
1759865037601805600,9.6288056640625,34.2599983215332,15.779999732971191,-18.119998931884766
1759865037642058200,9.669058349609376,34.68000030517578,16.3799991607666,-17.459999084472656
1759865037652159700,9.67915966796875,34.55999755859375,16.020000457763672,-18.18000030517578
1759865037662230500,9.68923046875,34.13999938964844,15.359999656677246,-18.479999542236328
1759865037672240000,9.699240234375,34.07999801635742,15.65999984741211,-18.299999237060547
1759865037682311200,9.709311279296875,33.89999771118164,15.359999656677246,-18.479999542236328
1759865037692382000,9.7193818359375,33.959999084472656,15.359999656677246,-18.479999542236328
1759865037702452700,9.72945263671875,34.2599983215332,15.299999237060547,-18.420000076293945
1759865037712462300,9.73946240234375,34.380001068115234,15.539999961853027,-18.059999465942383
1759865037752715000,9.779715087890626,34.13999938964844,16.3799991607666,-17.459999084472656
1759865037762755300,9.78975537109375,34.91999816894531,16.3799991607666,-17.279998779296875
1759865037772826000,9.799826171875,34.97999954223633,16.68000030517578,-17.279998779296875
1759865037782897000,9.80989697265625,35.52000045776367,16.799999237060547,-16.979999542236328
1759865037792937200,9.819937255859376,35.34000015258789,16.020000457763672,-17.34000015258789
1759865037813109500,9.840109619140625,34.73999786376953,15.59999942779541,-17.639999389648438
1759865037823149600,9.850149658203126,34.31999969482422,15.119999885559082,-17.940000534057617
1759865037863463400,9.89046337890625,34.73999786376953,15.719999313354492,-18.239999771118164
1759865037873534200,9.9005341796875,35.15999984741211,15.539999961853027,-18.600000381469727
1759865037883605000,9.91060498046875,35.34000015258789,15.779999732971191,-18.420000076293945
1759865037893675800,9.92067578125,35.57999801635742,15.899999618530273,-17.940000534057617
1759865037903777000,9.930777099609376,35.70000076293945,16.440000534057617,-17.459999084472656
1759865037913847800,9.940847900390626,35.70000076293945,16.559999465942383,-17.34000015258789
1759865037923857700,9.950857666015626,35.459999084472656,16.739999771118164,-17.459999084472656
1759865037933959000,9.960958984375,35.63999938964844,17.100000381469727,-16.85999870300293
1759865037964110300,9.9911103515625,35.34000015258789,17.940000534057617,-16.619998931884766
1759865037974211600,10.001211669921876,35.52000045776367,17.81999969482422,-17.399999618530273
1759865037984282400,10.011282470703126,35.7599983215332,17.940000534057617,-17.219999313354492
1759865037994353400,10.021353515625,36.05999755859375,17.279998779296875,-17.520000457763672
1759865038004424200,10.031424072265626,36,17.579999923706055,-17.100000381469727
1759865038014525400,10.041525390625,35.52000045776367,17.459999084472656,-16.31999969482422
1759865038024596200,10.05159619140625,35.34000015258789,17.459999084472656,-15.899999618530273
1759865038034636500,10.061636474609376,34.5,17.579999923706055,-15.239999771118164
1759865038064849000,10.091848876953126,34.380001068115234,16.799999237060547,-15.539999961853027
1759865038074950100,10.1019501953125,34.73999786376953,16.5,-15.539999961853027
1759865038085021000,10.11202099609375,35.279998779296875,16.260000228881836,-15.479999542236328
1759865038095091700,10.122091796875,36.23999786376953,16.619998931884766,-14.819999694824219
1759865038105162500,10.13216259765625,36.47999954223633,16.139999389648438,-15.299999237060547
1759865038115264000,10.142263916015626,36.779998779296875,16.19999885559082,-15.239999771118164
1759865038125334800,10.152334716796876,36.36000061035156,15.960000038146973,-14.75999927520752
1759865038135375000,10.162375,36.36000061035156,15.719999313354492,-14.639999389648438
1759865038165648400,10.1926484375,36.29999923706055,15.420000076293945,-14.09999942779541
1759865038175719200,10.20271923828125,36.23999786376953,15.059999465942383,-14.09999942779541
1759865038185790000,10.2127900390625,36.540000915527344,15.239999771118164,-13.4399995803833
1759865038195860700,10.22286083984375,36.779998779296875,15.420000076293945,-13.380000114440918
1759865038205962200,10.232962158203126,36.959999084472656,14.819999694824219,-13.559999465942383
1759865038216002600,10.24300244140625,36.71999740600586,15.119999885559082,-13.25999927520752
1759865038226073300,10.2530732421875,36.41999816894531,15.119999885559082,-13.4399995803833
1759865038236113400,10.263113525390626,36.05999755859375,15.299999237060547,-13.319999694824219
1759865038276366300,10.303366455078125,36.29999923706055,15.59999942779541,-13.139999389648438
1759865038296508000,10.3235078125,36,15.960000038146973,-13.679999351501465
1759865038326689800,10.353689697265626,36.23999786376953,16.68000030517578,-13.019999504089355
1759865038336760600,10.363760498046876,36.540000915527344,16.68000030517578,-13.4399995803833
1759865038366942500,10.3939423828125,35.21999740600586,16.19999885559082,-15.479999542236328
1759865038377013200,10.40401318359375,34.68000030517578,16.3799991607666,-15.119999885559082
1759865038387084000,10.414083984375,34.73999786376953,16.739999771118164,-14.579999923706055
1759865038397124400,10.424124267578126,34.91999816894531,16.619998931884766,-14.579999923706055
1759865038407225600,10.4342255859375,34.97999954223633,16.559999465942383,-14.819999694824219
1759865038417326800,10.444326904296876,34.73999786376953,16.979999542236328,-14.219999313354492
1759865038427397600,10.454397705078126,34.439998626708984,16.5,-14.579999923706055
1759865038437499100,10.4644990234375,34.439998626708984,16.619998931884766,-15.119999885559082
1759865038477751800,10.504751708984376,34.13999938964844,16.68000030517578,-16.079999923706055
1759865038487792000,10.514792236328125,33.71999740600586,16.68000030517578,-15.839999198913574
1759865038507933700,10.53493359375,35.040000915527344,16.920000076293945,-15.059999465942383
1759865038518004500,10.54500439453125,35.939998626708984,16.799999237060547,-15
1759865038528044800,10.555044921875,36.71999740600586,16.85999870300293,-14.399999618530273
1759865038538146000,10.56514599609375,36.23999786376953,16.020000457763672,-14.519999504089355
1759865038548186400,10.575186279296876,35.34000015258789,15.719999313354492,-14.460000038146973
1759865038568297500,10.59529736328125,34.13999938964844,14.579999923706055,-14.09999942779541
1759865038598509800,10.625509765625,36.18000030517578,13.619999885559082,-14.279999732971191
1759865038608580600,10.63558056640625,36.959999084472656,13.4399995803833,-14.15999984741211
1759865038618651400,10.6456513671875,37.380001068115234,12.960000038146973,-13.859999656677246
1759865038628752600,10.655752685546876,37.31999969482422,13.25999927520752,-13.199999809265137
1759865038638823400,10.665823486328126,37.2599983215332,13.079999923706055,-13.4399995803833
1759865038648894200,10.675894287109376,36.779998779296875,13.380000114440918,-13.739999771118164
1759865038679045600,10.706045654296876,35.52000045776367,14.039999961853027,-13.319999694824219
1759865038689147000,10.71614697265625,35.21999740600586,13.5,-13.25999927520752
1759865038699217700,10.7262177734375,35.39999771118164,12.960000038146973,-13.559999465942383
1759865038709319200,10.736319091796876,36.29999923706055,13.079999923706055,-13.920000076293945
1759865038719390000,10.746389892578126,36.779998779296875,13.079999923706055,-13.380000114440918
1759865038729491200,10.7564912109375,36.779998779296875,13.559999465942383,-13.4399995803833
1759865038739562000,10.76656201171875,36.29999923706055,13.4399995803833,-13.319999694824219
1759865038749632800,10.7766328125,35.7599983215332,13.319999694824219,-12.84000015258789
1759865038779845000,10.80684521484375,36.89999771118164,14.09999942779541,-13.019999504089355
1759865038800017400,10.827017333984376,37.13999938964844,14.460000038146973,-13.319999694824219
1759865038810118700,10.83711865234375,36.89999771118164,14.279999732971191,-13.979999542236328
1759865038820220000,10.847219970703126,37.02000045776367,14.399999618530273,-14.15999984741211
1759865038830290700,10.857290771484376,36.89999771118164,14.399999618530273,-14.399999618530273
1759865038840331000,10.8673310546875,36.47999954223633,14.460000038146973,-14.699999809265137
1759865038850401800,10.87740185546875,36.36000061035156,14.819999694824219,-14.639999389648438
1759865038860472600,10.88747265625,36.18000030517578,14.519999504089355,-15.059999465942383
1759865038880583700,10.907583740234376,36.779998779296875,14.279999732971191,-14.699999809265137
1759865038900756000,10.927755859375,36.47999954223633,13.679999351501465,-14.880000114440918
1759865038931029200,10.958029296875,36.89999771118164,12.899999618530273,-15.359999656677246
1759865038941100000,10.96810009765625,37.02000045776367,13.619999885559082,-15
1759865038951201500,10.978201416015626,36.71999740600586,13.679999351501465,-14.819999694824219
1759865038961272300,10.988272216796876,35.81999969482422,14.09999942779541,-14.639999389648438
1759865038981414000,11.008413818359376,35.15999984741211,14.699999809265137,-14.639999389648438
1759865038991515100,11.01851513671875,35.279998779296875,14.880000114440918,-14.819999694824219
1759865039001586000,11.0285859375,35.63999938964844,14.9399995803833,-14.75999927520752
1759865039011656700,11.03865673828125,35.70000076293945,14.699999809265137,-14.9399995803833
1759865039021697000,11.048697021484376,35.39999771118164,14.279999732971191,-15.59999942779541
1759865039031798300,11.05879833984375,34.91999816894531,13.920000076293945,-16.139999389648438
1759865039041838600,11.068838623046876,35.459999084472656,14.279999732971191,-16.020000457763672
1759865039051939800,11.07893994140625,35.459999084472656,14.399999618530273,-15.899999618530273
1759865039072112000,11.099112060546876,36.47999954223633,15.239999771118164,-15.179999351501465
1759865039092284200,11.1192841796875,36.84000015258789,14.699999809265137,-15.420000076293945
1759865039132536800,11.159536865234376,37.2599983215332,14.15999984741211,-14.519999504089355
1759865039142577200,11.1695771484375,37.13999938964844,14.279999732971191,-14.579999923706055
1759865039152617500,11.179617431640626,37.02000045776367,14.460000038146973,-14.09999942779541
1759865039162718700,11.18971875,37.380001068115234,14.09999942779541,-14.219999313354492
1759865039182829800,11.209829833984376,36.71999740600586,13.859999656677246,-13.619999885559082
1759865039202941000,11.22994091796875,36.779998779296875,13.859999656677246,-14.34000015258789
1759865039213011700,11.24001171875,36.71999740600586,13.739999771118164,-14.699999809265137
1759865039223113000,11.250113037109376,37.380001068115234,14.399999618530273,-14.880000114440918
1759865039233153300,11.2601533203125,37.2599983215332,14.519999504089355,-14.579999923706055
1759865039243224000,11.27022412109375,36.959999084472656,14.9399995803833,-13.920000076293945
1759865039253294800,11.280294921875,36.47999954223633,15,-14.039999961853027
1759865039263396400,11.290396240234376,36,15,-13.920000076293945
1759865039293578200,11.320578125,35.81999969482422,15,-15.59999942779541
1759865039303649000,11.33064892578125,36.18000030517578,15.179999351501465,-15.960000038146973
1759865039313658600,11.34065869140625,36.47999954223633,15.239999771118164,-15.59999942779541
1759865039323760000,11.350760009765626,36.779998779296875,15.539999961853027,-15.239999771118164
1759865039333831000,11.360830810546876,36.29999923706055,15.839999198913574,-14.639999389648438
1759865039343871000,11.37087109375,36.23999786376953,15.839999198913574,-14.15999984741211
1759865039353942000,11.38094189453125,36.36000061035156,15.719999313354492,-14.15999984741211
1759865039363982000,11.390982177734376,35.880001068115234,15.839999198913574,-14.279999732971191
1759865039394164000,11.4211640625,35.880001068115234,16.5,-14.15999984741211
1759865039404265500,11.431265380859376,36.47999954223633,16.68000030517578,-14.15999984741211
1759865039414336300,11.441336181640626,36.18000030517578,16.5,-14.699999809265137
1759865039424407000,11.451406982421876,36.05999755859375,16.3799991607666,-14.460000038146973
1759865039434447400,11.461447265625,36.05999755859375,16.139999389648438,-14.279999732971191
1759865039444548600,11.471548583984376,36.119998931884766,16.139999389648438,-13.920000076293945
1759865039454589000,11.4815888671875,36.29999923706055,16.079999923706055,-13.979999542236328
1759865039464659700,11.49165966796875,36.89999771118164,16.079999923706055,-14.15999984741211
1759865039474761000,11.501760986328126,36.84000015258789,16.139999389648438,-13.859999656677246
1759865039515074800,11.54207470703125,37.07999801635742,15.960000038146973,-13.739999771118164
1759865039525145600,11.5521455078125,37.2599983215332,15.839999198913574,-13.979999542236328
1759865039535216400,11.56221630859375,37.07999801635742,15.479999542236328,-13.979999542236328
1759865039545287200,11.572287109375,37.13999938964844,15.719999313354492,-14.15999984741211
1759865039555388400,11.582388427734376,36.84000015258789,15.960000038146973,-13.979999542236328
1759865039565428700,11.5924287109375,36.65999984741211,15.59999942779541,-14.399999618530273
1759865039575499500,11.60249951171875,36.18000030517578,15.779999732971191,-14.219999313354492
1759865039585570300,11.6125703125,35.7599983215332,15.65999984741211,-13.859999656677246
1759865039615782700,11.64278271484375,36.05999755859375,15.839999198913574,-14.699999809265137
1759865039625823000,11.652822998046876,36.05999755859375,15.299999237060547,-15.539999961853027
1759865039635893800,11.662893798828126,35.939998626708984,15.179999351501465,-15.420000076293945
1759865039656035300,11.683035400390626,36,14.579999923706055,-15.479999542236328
1759865039666075600,11.69307568359375,36.119998931884766,14.819999694824219,-15.119999885559082
1759865039676146400,11.703146484375,36.18000030517578,14.75999927520752,-15
1759865039686217200,11.71321728515625,35.939998626708984,14.819999694824219,-14.880000114440918
1759865039696288000,11.7232880859375,36.18000030517578,14.75999927520752,-14.639999389648438
1759865039726531000,11.753531005859376,36.71999740600586,15.719999313354492,-12.779999732971191
1759865039736571400,11.7635712890625,36.540000915527344,15,-13.559999465942383
1759865039746672600,11.773672607421876,36.959999084472656,14.9399995803833,-14.460000038146973
1759865039756713000,11.783712890625,37.20000076293945,15.059999465942383,-14.399999618530273
1759865039776854500,11.8038544921875,37.439998626708984,14.880000114440918,-14.519999504089355
1759865039786925300,11.81392529296875,37.13999938964844,14.9399995803833,-14.219999313354492
1759865039796965600,11.823965576171876,36.84000015258789,14.880000114440918,-13.979999542236328
1759865039847319600,11.874319580078126,36.89999771118164,15.420000076293945,-13.920000076293945
1759865039857390300,11.884390380859376,36.47999954223633,15.239999771118164,-14.579999923706055
1759865039867461000,11.894461181640626,36.29999923706055,15.119999885559082,-14.639999389648438
1759865039877562600,11.904562744140625,36,15.59999942779541,-13.979999542236328
1759865039887633400,11.91463330078125,36.18000030517578,16.079999923706055,-14.09999942779541
1759865039897704200,11.9247041015625,36.23999786376953,16.3799991607666,-13.679999351501465
1759865039907744500,11.93474462890625,35.52000045776367,16.68000030517578,-13.079999923706055
1759865039948027600,11.975027587890626,35.880001068115234,16.619998931884766,-14.460000038146973
1759865039958098400,11.985098388671876,36.41999816894531,16.139999389648438,-14.460000038146973
1759865039968169200,11.995169189453126,35.7599983215332,16.139999389648438,-13.979999542236328
1759865039978240000,12.005239990234376,35.7599983215332,15.539999961853027,-14.699999809265137
1759865039988280300,12.0152802734375,35.459999084472656,16.079999923706055,-13.799999237060547
1759865039998320600,12.025320556640626,34.97999954223633,16.619998931884766,-13.739999771118164
1759865040038573300,12.0655732421875,36.119998931884766,15.539999961853027,-14.279999732971191
1759865040048644000,12.07564404296875,35.939998626708984,15.359999656677246,-14.399999618530273
1759865040058745300,12.085745361328126,36.18000030517578,14.880000114440918,-14.460000038146973
1759865040068816100,12.095816162109376,36.23999786376953,15.299999237060547,-14.519999504089355
1759865040078887000,12.105886962890626,36.05999755859375,15.420000076293945,-14.34000015258789
1759865040088988400,12.115988525390625,36.18000030517578,15.479999542236328,-13.979999542236328
1759865040099059200,12.12605908203125,35.81999969482422,16.139999389648438,-13.559999465942383
1759865040129302000,12.156302001953126,35.57999801635742,16.799999237060547,-13.739999771118164
1759865040159544800,12.186544921875,34.79999923706055,17.579999923706055,-14.460000038146973
1759865040169646300,12.196646240234376,35.279998779296875,17.69999885559082,-14.279999732971191
1759865040179717000,12.206717041015626,35.099998474121094,18,-14.460000038146973
1759865040189788000,12.216787841796876,35.15999984741211,18.18000030517578,-14.819999694824219
1759865040199858700,12.226858642578126,35.279998779296875,17.8799991607666,-15.119999885559082
1759865040240111400,12.267111328125,33.71999740600586,18.239999771118164,-14.9399995803833
1759865040250182100,12.27718212890625,33.84000015258789,17.940000534057617,-15.65999984741211
1759865040260253000,12.2872529296875,33.89999771118164,18,-15.299999237060547
1759865040270354200,12.297354248046876,33.779998779296875,18,-14.880000114440918
1759865040290495700,12.317495849609376,34.380001068115234,17.81999969482422,-14.34000015258789
1759865040300566800,12.32756689453125,34.55999755859375,18.119998931884766,-14.279999732971191
1759865040310637600,12.337637451171876,35.040000915527344,18,-14.75999927520752
1759865040330748700,12.357748779296875,35.279998779296875,17.520000457763672,-14.819999694824219
1759865040340819500,12.3678193359375,35.34000015258789,17.279998779296875,-14.519999504089355
1759865040350890200,12.37789013671875,35.52000045776367,17.34000015258789,-13.4399995803833
1759865040360961000,12.3879609375,35.70000076293945,17.579999923706055,-13.920000076293945
1759865040371031800,12.39803173828125,35.34000015258789,17.520000457763672,-13.380000114440918
1759865040381102600,12.4081025390625,35.099998474121094,17.69999885559082,-13.5
1759865040391173400,12.41817333984375,34.439998626708984,17.69999885559082,-13.920000076293945
1759865040401244200,12.428244140625,34.5,17.940000534057617,-12.960000038146973
1759865040411315000,12.43831494140625,34.86000061035156,18,-13.5
1759865040441436000,12.468435791015626,35.880001068115234,17.579999923706055,-14.819999694824219
1759865040491820300,12.5188203125,35.459999084472656,17.15999984741211,-15.65999984741211
1759865040501860600,12.528860595703126,35.70000076293945,16.979999542236328,-15.719999313354492
1759865040511961900,12.5389619140625,35.7599983215332,17.100000381469727,-15.59999942779541
1759865040542235400,12.5692353515625,34.86000061035156,17.81999969482422,-14.819999694824219
1759865040552306200,12.57930615234375,34.97999954223633,17.81999969482422,-14.699999809265137
1759865040562346500,12.589346435546876,35.52000045776367,18.119998931884766,-14.219999313354492
1759865040572447700,12.59944775390625,35.34000015258789,18.239999771118164,-14.039999961853027
1759865040582518500,12.6095185546875,35.279998779296875,18.299999237060547,-14.75999927520752
1759865040592589300,12.61958935546875,34.73999786376953,18.479999542236328,-14.9399995803833
1759865040602690600,12.629690673828126,34.02000045776367,18.119998931884766,-15.359999656677246
1759865040612761600,12.63976171875,33.47999954223633,18.35999870300293,-15.420000076293945
1759865040622832400,12.649832275390626,33.36000061035156,18.600000381469727,-15
1759865040642943500,12.669943603515625,34.5,18.719999313354492,-14.579999923706055
1759865040663085000,12.6900849609375,35.279998779296875,18.18000030517578,-15.239999771118164
1759865040673155800,12.70015576171875,35.21999740600586,18.299999237060547,-15.359999656677246
1759865040683226600,12.7102265625,34.73999786376953,18.35999870300293,-15.420000076293945
1759865040693297400,12.72029736328125,34.380001068115234,18.239999771118164,-15
1759865040703398700,12.730398681640626,34.31999969482422,18.420000076293945,-14.699999809265137
1759865040713439000,12.74043896484375,34.619998931884766,18.479999542236328,-15
1759865040723509800,12.750509765625,34.380001068115234,18.18000030517578,-15.119999885559082
1759865040743651300,12.7706513671875,35.15999984741211,18.779998779296875,-15
1759865040753691600,12.780691650390626,34.68000030517578,18.35999870300293,-15.059999465942383
1759865040763762400,12.790762451171876,35.21999740600586,18.420000076293945,-15.239999771118164
1759865040773833200,12.800833251953126,35.279998779296875,18.420000076293945,-15.960000038146973
1759865040783873500,12.81087353515625,35.21999740600586,17.69999885559082,-16.559999465942383
1759865040793913900,12.820913818359376,35.099998474121094,17.940000534057617,-16.3799991607666
1759865040804015000,12.83101513671875,34.68000030517578,17.940000534057617,-15.719999313354492
1759865040814055400,12.841055419921876,34.86000061035156,17.639999389648438,-15.539999961853027
1759865040824095700,12.851095703125,34.86000061035156,17.760000228881836,-15.179999351501465
1759865040834136000,12.861135986328126,35.279998779296875,17.03999900817871,-15.59999942779541
1759865040844237300,12.8712373046875,35.81999969482422,17.100000381469727,-16.020000457763672
1759865040854277600,12.881277587890626,35.52000045776367,16.85999870300293,-15.65999984741211
1759865040864348400,12.891348388671876,35.70000076293945,16.799999237060547,-15.59999942779541
1759865040874358300,12.901358154296876,35.939998626708984,16.979999542236328,-15.779999732971191
1759865040884459500,12.91145947265625,36.18000030517578,16.559999465942383,-15.59999942779541
1759865040894499800,12.921499755859376,36.36000061035156,16.739999771118164,-15.359999656677246
1759865040904601000,12.93160107421875,35.81999969482422,16.19999885559082,-15.65999984741211
1759865040914671900,12.941671875,35.880001068115234,16.260000228881836,-14.75999927520752
1759865040924712200,12.951712158203126,35.939998626708984,16.020000457763672,-14.699999809265137
1759865040934783000,12.961782958984376,35.7599983215332,15.839999198913574,-14.75999927520752
1759865040975035600,13.00203564453125,35.040000915527344,16.619998931884766,-16.139999389648438
1759865040985106400,13.0121064453125,34.68000030517578,16.68000030517578,-15.65999984741211
1759865040995146800,13.022146728515626,34.31999969482422,16.3799991607666,-15.299999237060547
1759865041005217500,13.032217529296876,34.380001068115234,16.19999885559082,-15.59999942779541
1759865041015288300,13.042288330078126,34.97999954223633,16.5,-15.839999198913574
1759865041025359000,13.052359130859376,35.21999740600586,16.559999465942383,-16.139999389648438
1759865041035399400,13.0623994140625,34.86000061035156,16.3799991607666,-16.68000030517578
1759865041045500700,13.072500732421876,34.91999816894531,16.799999237060547,-16.260000228881836
1759865041065642200,13.092642333984376,33.84000015258789,16.440000534057617,-16.920000076293945
1759865041075713000,13.102713134765626,34.31999969482422,16.559999465942383,-17.15999984741211
1759865041085814500,13.112814453125,34.5,16.559999465942383,-17.459999084472656
1759865041095885300,13.12288525390625,34.86000061035156,16.440000534057617,-17.69999885559082
1759865041105986600,13.132986572265626,34.97999954223633,16.619998931884766,-17.459999084472656
1759865041116057300,13.143057373046876,34.68000030517578,16.85999870300293,-17.579999923706055
1759865041126097700,13.15309765625,34.31999969482422,16.920000076293945,-17.520000457763672
1759865041136138000,13.163137939453126,33.959999084472656,17.34000015258789,-17.34000015258789
1759865041146178300,13.17317822265625,33.119998931884766,17.100000381469727,-17.8799991607666
1759865041186431000,13.213430908203126,33.05999755859375,17.8799991607666,-17.579999923706055
1759865041196471300,13.22347119140625,33.540000915527344,17.639999389648438,-17.34000015258789
1759865041206603000,13.23360302734375,34.20000076293945,17.03999900817871,-17.579999923706055
1759865041216643300,13.243643310546876,34.97999954223633,17.219999313354492,-17.219999313354492
1759865041226744600,13.25374462890625,34.07999801635742,17.219999313354492,-17.03999900817871
1759865041236815400,13.2638154296875,33.779998779296875,16.920000076293945,-17.279998779296875
1759865041246916900,13.273916748046876,33.47999954223633,17.100000381469727,-16.739999771118164
1759865041256987600,13.283987548828126,33.18000030517578,16.68000030517578,-17.279998779296875
1759865041297301200,13.32430126953125,34.13999938964844,16.739999771118164,-16.68000030517578
1759865041307372000,13.3343720703125,34.31999969482422,16.739999771118164,-16.85999870300293
1759865041317473300,13.344473388671876,34.5,16.5,-17.15999984741211
1759865041327544300,13.35454443359375,34.91999816894531,16.440000534057617,-17.279998779296875
1759865041337584400,13.36458447265625,35.52000045776367,16.559999465942383,-17.100000381469727
1759865041347624700,13.374624755859376,35.880001068115234,16.31999969482422,-17.03999900817871
1759865041357695500,13.384695556640626,36.18000030517578,16.31999969482422,-16.440000534057617
1759865041397979000,13.424978759765626,35.57999801635742,17.34000015258789,-16.020000457763672
1759865041408049700,13.435049560546876,35.279998779296875,17.219999313354492,-16.079999923706055
1759865041418151000,13.44515087890625,34.86000061035156,16.739999771118164,-16.19999885559082
1759865041428221700,13.4552216796875,34.439998626708984,17.15999984741211,-15.59999942779541
1759865041438323000,13.465322998046876,34.73999786376953,17.219999313354492,-15.179999351501465
1759865041448424400,13.475424560546875,35.459999084472656,17.520000457763672,-14.579999923706055
1759865041458495200,13.4854951171875,36.119998931884766,17.520000457763672,-15.239999771118164
1759865041488738000,13.515738037109376,35.7599983215332,15.899999618530273,-15.899999618530273
1759865041498808800,13.525808837890626,35.459999084472656,15.960000038146973,-14.819999694824219
1759865041508910000,13.53591015625,35.34000015258789,15.779999732971191,-15
1759865041518980900,13.54598095703125,35.099998474121094,16.079999923706055,-15.359999656677246
1759865041529051600,13.5560517578125,35.21999740600586,16.559999465942383,-15
1759865041539153200,13.566153076171876,34.79999923706055,16.3799991607666,-15.719999313354492
1759865041549224000,13.576223876953126,35.040000915527344,16.559999465942383,-15.65999984741211
1759865041559294700,13.586294677734376,34.91999816894531,17.219999313354492,-14.579999923706055
1759865041589507000,13.616507080078126,35.279998779296875,17.459999084472656,-15.179999351501465
1759865041599577900,13.626577880859376,35.21999740600586,17.279998779296875,-15.539999961853027
1759865041609679000,13.63667919921875,35.52000045776367,17.279998779296875,-15.299999237060547
1759865041619750000,13.64675,35.39999771118164,17.34000015258789,-14.75999927520752
1759865041629821000,13.656821044921875,35.459999084472656,17.579999923706055,-14.819999694824219
1759865041639891700,13.6668916015625,35.52000045776367,16.979999542236328,-15.119999885559082
1759865041649931800,13.676931884765626,34.86000061035156,16.739999771118164,-15.299999237060547
1759865041660033300,13.687033203125,34.91999816894531,16.5,-15.359999656677246
1759865041700286000,13.727285888671876,35.099998474121094,16.260000228881836,-15.839999198913574
1759865041730498300,13.757498291015626,36.36000061035156,16.139999389648438,-16.020000457763672
1759865041740538600,13.76753857421875,36.36000061035156,16.5,-15.839999198913574
1759865041750579000,13.777578857421876,36,16.440000534057617,-15.960000038146973
1759865041760619300,13.787619384765625,35.39999771118164,16.31999969482422,-16.31999969482422
1759865041770690000,13.79768994140625,34.619998931884766,16.3799991607666,-17.15999984741211
1759865041790801200,13.81780126953125,33.959999084472656,16.85999870300293,-17.579999923706055
1759865041800902400,13.82790234375,33.23999786376953,17.03999900817871,-17.100000381469727
1759865041810973200,13.83797314453125,33.599998474121094,17.279998779296875,-17.03999900817871
1759865041821044000,13.8480439453125,33.89999771118164,17.639999389648438,-16.739999771118164
1759865041831145200,13.858145263671876,33.05999755859375,17.520000457763672,-17.15999984741211
1759865041841185500,13.868185546875,32.7599983215332,17.520000457763672,-17.8799991607666
1759865041851286800,13.878286865234376,32.15999984741211,17.399999618530273,-18
1759865041861357600,13.888357666015626,31.67999839782715,16.920000076293945,-19.020000457763672
1759865041901610200,13.9286103515625,32.57999801635742,17.100000381469727,-19.799999237060547
1759865041911711700,13.938711669921876,33.23999786376953,16.3799991607666,-20.03999900817871
1759865041921782500,13.948782470703126,33.599998474121094,16.799999237060547,-19.619998931884766
1759865041931853300,13.958853271484376,33.41999816894531,16.85999870300293,-18.779998779296875
1759865041941954600,13.96895458984375,33.36000061035156,16.85999870300293,-18.059999465942383
1759865041951995000,13.978994873046876,33.41999816894531,17.520000457763672,-17.69999885559082
1759865041962035200,13.98903515625,33.119998931884766,17.760000228881836,-16.920000076293945
1759865042002287900,14.029287841796876,34.91999816894531,16.19999885559082,-17.219999313354492
1759865042012389000,14.03938916015625,36,16.260000228881836,-16.19999885559082
1759865042022460000,14.0494599609375,35.81999969482422,15.59999942779541,-16.139999389648438
1759865042032530700,14.05953076171875,35.7599983215332,14.639999389648438,-16.440000534057617
1759865042052672300,14.07967236328125,34.97999954223633,13.859999656677246,-17.15999984741211
1759865042062743300,14.089743408203125,34.73999786376953,14.15999984741211,-16.619998931884766
1759865042092955600,14.11995556640625,34.73999786376953,14.34000015258789,-16.979999542236328
1759865042102996000,14.129995849609376,35.040000915527344,13.979999542236328,-17.639999389648438
1759865042113097200,14.14009716796875,35.459999084472656,13.799999237060547,-17.81999969482422
1759865042123198500,14.150198486328126,35.15999984741211,13.5,-17.579999923706055
1759865042133269200,14.160269287109376,35.15999984741211,13.979999542236328,-16.979999542236328
1759865042143340000,14.170340087890626,34.439998626708984,13.859999656677246,-16.979999542236328
1759865042153410800,14.180410888671876,34.07999801635742,14.34000015258789,-16.85999870300293
1759865042163451100,14.190451171875,33.599998474121094,14.399999618530273,-17.34000015258789
1759865042173522000,14.20052197265625,33.47999954223633,14.15999984741211,-17.760000228881836
1759865042234038300,14.261038330078126,34.13999938964844,16.440000534057617,-17.15999984741211
1759865042244139800,14.271139892578125,33.84000015258789,16.260000228881836,-18.119998931884766
1759865042254241000,14.281240966796876,33.65999984741211,16.079999923706055,-18.779998779296875
1759865042264281300,14.29128125,33.71999740600586,16.079999923706055,-18.84000015258789
1759865042274352000,14.30135205078125,33.71999740600586,16.260000228881836,-18.84000015258789
1759865042314727000,14.341726806640626,33.959999084472656,15.179999351501465,-19.559999465942383
1759865042324767000,14.35176708984375,33.779998779296875,14.880000114440918,-19.799999237060547
1759865042334868500,14.361868408203126,34.2599983215332,15.179999351501465,-19.19999885559082
1759865042344939300,14.371939208984376,34.13999938964844,14.880000114440918,-19.3799991607666
1759865042354979600,14.3819794921875,33.779998779296875,14.699999809265137,-19.020000457763672
1759865042365080800,14.392080810546876,33.84000015258789,15,-18.719999313354492
1759865042375151600,14.402151611328126,33.599998474121094,14.880000114440918,-18.600000381469727
1759865042385252900,14.4122529296875,33.23999786376953,15.059999465942383,-18.299999237060547
1759865042445616600,14.47261669921875,34.20000076293945,16.31999969482422,-17.8799991607666
1759865042455687400,14.4826875,34.07999801635742,16.799999237060547,-18
1759865042475737600,14.502737548828126,34.02000045776367,16.920000076293945,-18.719999313354492
1759865042485838800,14.5128388671875,33.599998474121094,16.85999870300293,-18.600000381469727
1759865042495940000,14.522940185546876,33.540000915527344,16.5,-18.65999984741211
1759865042505980400,14.53298046875,33.29999923706055,16.619998931884766,-17.81999969482422
1759865042536223500,14.563223388671876,33.29999923706055,16.68000030517578,-18.600000381469727
1759865042546324700,14.57332470703125,33.47999954223633,16.559999465942383,-19.3799991607666
1759865042566466300,14.59346630859375,33.71999740600586,16.139999389648438,-19.31999969482422
1759865042576567600,14.603567626953126,34.13999938964844,16.19999885559082,-18.779998779296875
1759865042586638300,14.613638427734376,33.779998779296875,16.3799991607666,-17.940000534057617
1759865042596678700,14.6236787109375,33.71999740600586,16.3799991607666,-18
1759865042606780200,14.6337802734375,34.02000045776367,15.960000038146973,-18.239999771118164
1759865042647124200,14.674124267578126,33.89999771118164,14.34000015258789,-18.53999900817871
1759865042657225500,14.6842255859375,34.439998626708984,14.519999504089355,-18.18000030517578
1759865042667265800,14.694265869140626,34.86000061035156,14.699999809265137,-18.18000030517578
1759865042677306000,14.70430615234375,34.91999816894531,14.819999694824219,-18.35999870300293
1759865042687377000,14.714376953125,34.91999816894531,14.819999694824219,-17.940000534057617
1759865042697447700,14.72444775390625,34.73999786376953,14.819999694824219,-18
1759865042707518500,14.7345185546875,34.55999755859375,14.519999504089355,-18.299999237060547
1759865042747862800,14.77486279296875,34.380001068115234,14.75999927520752,-17.69999885559082
1759865042757903000,14.784903076171876,34.97999954223633,14.519999504089355,-18.600000381469727
1759865042767974000,14.794973876953126,34.73999786376953,14.880000114440918,-18.059999465942383
1759865042778014200,14.80501416015625,34.91999816894531,15.059999465942383,-18.059999465942383
1759865042788085000,14.8150849609375,34.86000061035156,15.539999961853027,-17.579999923706055
1759865042798094800,14.8250947265625,34.31999969482422,15.59999942779541,-16.979999542236328
1759865042808196000,14.835196044921876,34.5,15.539999961853027,-17.03999900817871
1759865042848479200,14.875479248046876,34.86000061035156,14.9399995803833,-17.639999389648438
1759865042858580500,14.88558056640625,34.73999786376953,15,-17.639999389648438
1759865042868651300,14.8956513671875,34.31999969482422,14.880000114440918,-17.520000457763672
1759865042888793000,14.91579296875,34.31999969482422,14.579999923706055,-17.69999885559082
1759865042898863900,14.92586376953125,34.5,14.819999694824219,-17.34000015258789
1759865042908965000,14.935965087890626,34.619998931884766,14.579999923706055,-17.520000457763672
1759865042949248300,14.976248291015626,35.15999984741211,15.479999542236328,-17.520000457763672
1759865042959219200,14.98621923828125,35.15999984741211,15.119999885559082,-18.059999465942383
1759865042969290000,14.9962900390625,34.79999923706055,15.179999351501465,-17.399999618530273
1759865042979391200,15.00639111328125,34.439998626708984,14.9399995803833,-17.399999618530273
1759865042989462000,15.0164619140625,34.380001068115234,14.399999618530273,-18.18000030517578
1759865043009634000,15.036634033203125,34.86000061035156,14.75999927520752,-17.8799991607666
1759865043019735600,15.046735595703124,34.97999954223633,15.119999885559082,-18.299999237060547
1759865043060049200,15.087049072265625,34.439998626708984,16.079999923706055,-17.459999084472656
1759865043070150400,15.097150390625,34.20000076293945,15.479999542236328,-17.8799991607666
1759865043080252000,15.107251953125,33.89999771118164,15.359999656677246,-17.81999969482422
1759865043090322700,15.11732275390625,34.13999938964844,15.119999885559082,-18
1759865043100393500,15.1273935546875,34.439998626708984,14.699999809265137,-18.35999870300293
1759865043110433800,15.137433837890624,34.55999755859375,15.059999465942383,-18.239999771118164
1759865043130575400,15.157575439453124,33.89999771118164,15.420000076293945,-17.81999969482422
1759865043160848600,15.1878486328125,34.2599983215332,16.079999923706055,-16.85999870300293
1759865043170919400,15.19791943359375,34.439998626708984,15.899999618530273,-17.100000381469727
1759865043181021000,15.20802099609375,33.84000015258789,15.59999942779541,-17.579999923706055
1759865043191091700,15.218091796875,33.89999771118164,15.059999465942383,-17.520000457763672
1759865043201132000,15.228132080078124,34.02000045776367,15.179999351501465,-17.279998779296875
1759865043211202800,15.238202880859374,34.02000045776367,14.819999694824219,-17.81999969482422
1759865043231344400,15.258344482421874,34.86000061035156,15.539999961853027,-17.639999389648438
1759865043241445600,15.268445556640625,34.73999786376953,15.179999351501465,-18.119998931884766
1759865043261617700,15.28861767578125,34.439998626708984,14.880000114440918,-17.81999969482422
1759865043271688700,15.298688720703124,34.07999801635742,14.460000038146973,-18.18000030517578
1759865043281759500,15.308759521484374,34.02000045776367,14.579999923706055,-17.81999969482422
1759865043291830300,15.318830322265624,34.20000076293945,14.579999923706055,-18.420000076293945
1759865043301870600,15.32887060546875,34.31999969482422,15.119999885559082,-18.18000030517578
1759865043311971800,15.338971923828124,35.040000915527344,15.239999771118164,-18.53999900817871
1759865043322073000,15.349072998046875,35.099998474121094,15.59999942779541,-18.35999870300293
1759865043332143900,15.359143798828125,34.97999954223633,15.719999313354492,-18.239999771118164
1759865043342214700,15.369214599609375,34.619998931884766,15.65999984741211,-18.35999870300293
1759865043372427000,15.399427001953125,33.84000015258789,15.479999542236328,-18.35999870300293
1759865043382497800,15.409497802734375,33.959999084472656,15.239999771118164,-18.479999542236328
1759865043402609000,15.42960888671875,34.5,15.239999771118164,-19.260000228881836
1759865043412679700,15.4396796875,34.31999969482422,14.519999504089355,-19.260000228881836
1759865043432852000,15.45985205078125,33.36000061035156,14.219999313354492,-19.020000457763672
1759865043452993500,15.47999365234375,33.47999954223633,13.679999351501465,-19.3799991607666
1759865043493276700,15.520276611328125,34.07999801635742,14.639999389648438,-18.299999237060547
1759865043513449000,15.540448974609374,34.02000045776367,14.819999694824219,-18.299999237060547
1759865043523519700,15.550519775390624,33.779998779296875,14.880000114440918,-18.719999313354492
1759865043533621000,15.56062109375,34.07999801635742,15,-18.899999618530273
1759865043543691800,15.57069189453125,34.439998626708984,14.880000114440918,-19.3799991607666
1759865043553732000,15.580732177734374,34.20000076293945,15.420000076293945,-19.3799991607666
1759865043563863800,15.59086376953125,34.13999938964844,15.59999942779541,-19.3799991607666
1759865043573904100,15.600904052734375,33.599998474121094,16.020000457763672,-19.619998931884766
1759865043604116500,15.631116455078125,32.279998779296875,15.899999618530273,-20.459999084472656
1759865043614187300,15.641187255859375,32.39999771118164,15.719999313354492,-20.459999084472656
1759865043624288800,15.651288818359374,32.880001068115234,15.960000038146973,-20.279998779296875
1759865043634359600,15.661359619140624,32.880001068115234,16.440000534057617,-19.31999969482422
1759865043644399900,15.67139990234375,33.23999786376953,16.260000228881836,-19.19999885559082
1759865043654470700,15.681470703125,32.7599983215332,15.839999198913574,-19.020000457763672
1759865043664541400,15.69154150390625,32.39999771118164,15.65999984741211,-18.65999984741211
1759865043704855000,15.73185498046875,32.459999084472656,15.239999771118164,-18.84000015258789
1759865043714925800,15.74192578125,33.119998931884766,15.299999237060547,-18.35999870300293
1759865043735098000,15.76209814453125,33.65999984741211,15,-17.69999885559082
1759865043745199400,15.772199462890624,34.13999938964844,15,-17.69999885559082
1759865043755239700,15.78223974609375,33.36000061035156,14.579999923706055,-17.69999885559082
1759865043765249300,15.792249267578125,32.880001068115234,14.519999504089355,-17.69999885559082
1759865043795462000,15.8224619140625,33.41999816894531,15.119999885559082,-18.18000030517578
1759865043805532700,15.83253271484375,33.959999084472656,15.179999351501465,-18.35999870300293
1759865043815603500,15.842603515625,34.2599983215332,14.9399995803833,-17.940000534057617
1759865043825643800,15.852643798828124,34.20000076293945,15,-18.18000030517578
1759865043835714600,15.862714599609374,34.13999938964844,14.75999927520752,-18.119998931884766
1759865043845785300,15.872785400390624,33.779998779296875,15,-17.399999618530273
1759865043855856000,15.882856201171874,33.599998474121094,15.119999885559082,-17.279998779296875
1759865043865957400,15.892957275390625,34.13999938964844,15,-17.219999313354492
1759865043906179600,15.9331796875,34.20000076293945,14.699999809265137,-18.18000030517578
1759865043916158700,15.94315869140625,34.55999755859375,14.09999942779541,-18.53999900817871
1759865043926260200,15.95326025390625,34.2599983215332,14.460000038146973,-18.119998931884766
1759865043936331000,15.9633310546875,34.20000076293945,14.519999504089355,-18
1759865043946401800,15.97340185546875,34.380001068115234,14.579999923706055,-18
1759865043956411400,15.983411376953125,34.07999801635742,15,-17.760000228881836
1759865043966513000,15.993512939453124,34.13999938964844,14.460000038146973,-18.18000030517578
1759865044016927700,16.043927734375,34.31999969482422,13.139999389648438,-20.219999313354492
1759865044057180400,16.084180419921875,34.20000076293945,13.5,-19.439998626708984
1759865044067282000,16.094281982421876,33.959999084472656,13.920000076293945,-18.959999084472656
1759865044077322200,16.104322265625,33.65999984741211,13.739999771118164,-18.959999084472656
1759865044097494300,16.124494384765626,33.71999740600586,13.679999351501465,-19.020000457763672
1759865044107595500,16.134595458984375,33.959999084472656,13.619999885559082,-19.799999237060547
1759865044117605400,16.14460546875,34.2599983215332,13.859999656677246,-20.03999900817871
1759865044127706600,16.15470654296875,34.02000045776367,13.859999656677246,-20.520000457763672
1759865044137777400,16.16477734375,33.41999816894531,13.859999656677246,-21
1759865044147848200,16.17484814453125,33.05999755859375,13.679999351501465,-20.639999389648438
1759865044157888500,16.184888427734375,33,13.859999656677246,-20.8799991607666
1759865044167989800,16.19498974609375,33.29999923706055,13.679999351501465,-20.69999885559082
1759865044178030000,16.205030029296875,33.119998931884766,13.679999351501465,-19.979999542236328
1759865044238485500,16.265485595703126,34.380001068115234,12.719999313354492,-19.139999389648438
1759865044258596600,16.2855966796875,34.79999923706055,12.960000038146973,-17.940000534057617
1759865044268637000,16.295636962890626,35.34000015258789,13.019999504089355,-18.119998931884766
1759865044278707700,16.305707763671876,34.86000061035156,13.25999927520752,-17.459999084472656
1759865044318990800,16.345990966796876,33.65999984741211,13.979999542236328,-18.719999313354492
1759865044329092000,16.356092041015625,34.07999801635742,13.979999542236328,-18.479999542236328
1759865044339163000,16.366162841796875,34.02000045776367,14.699999809265137,-18.479999542236328
1759865044349203200,16.376203125,34.07999801635742,15.179999351501465,-18.600000381469727
1759865044359304400,16.386304443359375,34.31999969482422,15.299999237060547,-19.020000457763672
1759865044369375200,16.396375244140625,33.41999816894531,15.420000076293945,-19.619998931884766
1759865044379446300,16.4064462890625,32.39999771118164,15.839999198913574,-19.5
1759865044389517000,16.41651708984375,31.85999870300293,15.899999618530273,-19.739999771118164
1759865044419668200,16.446668212890625,31.85999870300293,16.85999870300293,-19.31999969482422
1759865044439810000,16.46681005859375,32.21999740600586,17.34000015258789,-19.020000457763672
1759865044449880800,16.476880859375,32.939998626708984,17.69999885559082,-19.020000457763672
1759865044459921000,16.4869208984375,32.57999801635742,18.059999465942383,-19.139999389648438
1759865044470022400,16.4970224609375,32.57999801635742,17.81999969482422,-19.799999237060547
1759865044480062700,16.507062744140626,31.979999542236328,18.65999984741211,-19.799999237060547
1759865044490133500,16.517133544921876,31.260000228881836,18.779998779296875,-20.15999984741211
1759865044530416600,16.557416748046876,30.899999618530273,18.119998931884766,-20.639999389648438
1759865044540487400,16.5674873046875,30.599998474121094,18.479999542236328,-20.34000015258789
1759865044550527700,16.57752783203125,30.53999900817871,18.65999984741211,-20.69999885559082
1759865044560598500,16.5875986328125,29.939998626708984,18.719999313354492,-20.939998626708984
1759865044570638800,16.597638916015626,30.17999839782715,18.84000015258789,-20.8799991607666
1759865044590780400,16.617780517578126,30.299999237060547,19.020000457763672,-20.8799991607666
1759865044621023200,16.648023193359375,30.959999084472656,20.15999984741211,-20.69999885559082
1759865044631094000,16.658093994140625,30.299999237060547,20.34000015258789,-20.69999885559082
1759865044641164800,16.668164794921875,29.639999389648438,20.34000015258789,-20.69999885559082
1759865044651235600,16.678235595703125,29.15999984741211,20.219999313354492,-20.579999923706055
1759865044661306600,16.688306640625,29.579999923706055,20.399999618530273,-19.979999542236328
1759865044671377400,16.69837744140625,29.8799991607666,20.520000457763672,-19.920000076293945
1759865044681448200,16.7084482421875,29.939998626708984,20.81999969482422,-19.739999771118164
1759865044691488500,16.718488525390626,30,20.579999923706055,-20.279998779296875
1759865044701589800,16.72858984375,30.17999839782715,20.459999084472656,-20.81999969482422
1759865044711691000,16.73869091796875,30.84000015258789,20.399999618530273,-20.579999923706055
1759865044721761800,16.74876171875,31.260000228881836,20.03999900817871,-21.059999465942383
1759865044741964500,16.768964599609376,31.31999969482422,20.15999984741211,-20.34000015258789
1759865044772207400,16.799207275390625,30.84000015258789,19.439998626708984,-21.239999771118164
1759865044782308600,16.80930859375,31.439998626708984,19.31999969482422,-21.84000015258789
1759865044792410000,16.81941015625,31.559999465942383,19.559999465942383,-22.079999923706055
1759865044812521200,16.839521240234376,31.139999389648438,19.619998931884766,-22.139999389648438
1759865044832662800,16.859662841796876,30.420000076293945,19.799999237060547,-21.059999465942383
1759865044842733600,16.869733642578126,30.420000076293945,19.979999542236328,-20.639999389648438
1759865044852804400,16.879804443359376,30.53999900817871,19.739999771118164,-20.03999900817871
1759865044862844700,16.8898447265625,30.719999313354492,19.619998931884766,-19.920000076293945
1759865044872946000,16.89994580078125,30.239999771118164,19.439998626708984,-20.100000381469727
1759865044883047200,16.910047119140625,30.059999465942383,19.020000457763672,-20.579999923706055
1759865044893118000,16.920117919921875,29.939998626708984,19.020000457763672,-21.420000076293945
1759865044903188700,16.930188720703125,29.939998626708984,19.139999389648438,-21.299999237060547
1759865044923391500,16.9503916015625,29.939998626708984,19.079999923706055,-21.899999618530273
1759865044943502600,16.970502685546876,30.420000076293945,18.84000015258789,-21.959999084472656
1759865044953573400,16.980573486328126,30.899999618530273,19.260000228881836,-21.53999900817871
1759865044963674600,16.990674560546875,31.260000228881836,19.19999885559082,-21.420000076293945
1759865044973776000,17.00077587890625,31.139999389648438,18.899999618530273,-21.65999984741211
1759865044983847000,17.010846923828126,31.139999389648438,19.139999389648438,-21.479999542236328
1759865044993887000,17.020886962890625,30.53999900817871,19.3799991607666,-21.239999771118164
1759865045003988500,17.030988525390626,30.239999771118164,19.559999465942383,-21.600000381469727
1759865045024160500,17.051160400390625,29.8799991607666,20.279998779296875,-21.53999900817871
1759865045044302000,17.071302001953125,29.459999084472656,20.03999900817871,-21.719999313354492
1759865045054372900,17.081372802734375,29.51999855041504,20.459999084472656,-20.939998626708984
1759865045064474000,17.09147412109375,30,20.219999313354492,-20.520000457763672
1759865045074545200,17.101545166015626,29.8799991607666,20.15999984741211,-20.34000015258789
1759865045084585200,17.111585205078125,29.81999969482422,20.15999984741211,-20.579999923706055
1759865045094625500,17.12162548828125,29.03999900817871,20.03999900817871,-20.459999084472656
1759865045104696300,17.1316962890625,28.19999885559082,19.799999237060547,-20.81999969482422
1759865045114767000,17.14176708984375,28.5,20.03999900817871,-20.639999389648438
1759865045134847700,17.16184765625,29.579999923706055,19.799999237060547,-20.639999389648438
1759865045155050500,17.182050537109376,30.959999084472656,19.920000076293945,-19.739999771118164
1759865045165121300,17.192121337890626,30.899999618530273,19.31999969482422,-19.439998626708984
1759865045175222500,17.202222412109375,30.899999618530273,19.19999885559082,-19.619998931884766
1759865045185293300,17.212293212890625,30.719999313354492,19.19999885559082,-19.619998931884766
1759865045195364000,17.222364013671875,31.01999855041504,18.719999313354492,-19.979999542236328
1759865045205435000,17.232434814453125,30.959999084472656,18.719999313354492,-19.979999542236328
1759865045245748700,17.272748779296876,31.260000228881836,17.639999389648438,-19.260000228881836
1759865045255788800,17.282788818359375,31.85999870300293,16.979999542236328,-19.739999771118164
1759865045265859800,17.29285986328125,32.39999771118164,16.799999237060547,-18.84000015258789
1759865045286001400,17.31300146484375,32.63999938964844,16.799999237060547,-18.65999984741211
1759865045296072200,17.323072265625,32.099998474121094,17.03999900817871,-18.119998931884766
1759865045336416300,17.363416259765625,32.099998474121094,16.260000228881836,-19.31999969482422
1759865045346487300,17.3734873046875,32.279998779296875,16.3799991607666,-19.439998626708984
1759865045356558000,17.38355810546875,32.279998779296875,16.31999969482422,-19.439998626708984
1759865045366628900,17.39362890625,32.459999084472656,16.020000457763672,-20.279998779296875
1759865045376669000,17.4036689453125,32.040000915527344,15.960000038146973,-19.439998626708984
1759865045386709200,17.413709228515625,32.040000915527344,15.899999618530273,-19.619998931884766
1759865045396780000,17.423780029296875,31.85999870300293,16.31999969482422,-19.260000228881836
1759865045406850800,17.433850830078125,31.979999542236328,16.3799991607666,-19.19999885559082
1759865045416891100,17.44389111328125,31.920000076293945,16.31999969482422,-20.279998779296875
1759865045457235500,17.4842353515625,31.439998626708984,16.5,-21.059999465942383
1759865045467306200,17.49430615234375,31.67999839782715,16.5,-21.059999465942383
1759865045477346600,17.5043466796875,31.559999465942383,16.260000228881836,-21.35999870300293
1759865045487417300,17.514417236328125,31.67999839782715,16.440000534057617,-21.239999771118164
1759865045497488100,17.524488037109375,31.619998931884766,16.559999465942383,-21.420000076293945
1759865045507559000,17.534558837890625,31.739999771118164,16.799999237060547,-21.719999313354492
1759865045517599200,17.54459912109375,31.3799991607666,16.920000076293945,-21.899999618530273
1759865045547872800,17.574872802734376,29.939998626708984,16.799999237060547,-22.260000228881836
1759865045567983900,17.59498388671875,29.69999885559082,16.920000076293945,-22.079999923706055
1759865045578085000,17.605085205078126,30.299999237060547,16.559999465942383,-22.559999465942383
1759865045588156000,17.615156005859376,30.35999870300293,16.68000030517578,-22.799999237060547
1759865045598196200,17.6251962890625,30.779998779296875,16.559999465942383,-22.920000076293945
1759865045608297500,17.63529736328125,30.479999542236328,15.839999198913574,-23.15999984741211
1759865045618368300,17.6453681640625,30.119998931884766,15.719999313354492,-23.15999984741211
1759865045628439000,17.65543896484375,29.939998626708984,15.960000038146973,-23.279998779296875
1759865045658621000,17.685620849609375,29.459999084472656,16.3799991607666,-23.760000228881836
1759865045678762500,17.705762451171875,29.34000015258789,16.3799991607666,-23.399999618530273
1759865045698904000,17.725904052734375,29.15999984741211,16.260000228881836,-23.81999969482422
1759865045708944400,17.7359443359375,29.219999313354492,16.260000228881836,-24.18000030517578
1759865045719015200,17.74601513671875,29.459999084472656,16.559999465942383,-24.959999084472656
1759865045729116700,17.75611669921875,28.799999237060547,16.920000076293945,-25.439998626708984
1759865045739218000,17.766218017578126,28.920000076293945,17.520000457763672,-25.5
1759865045769491200,17.7964912109375,28.979999542236328,17.639999389648438,-25.079999923706055
1759865045789602300,17.816602294921875,29.03999900817871,17.100000381469727,-24.899999618530273
1759865045799703800,17.826703857421876,29.34000015258789,16.619998931884766,-25.439998626708984
1759865045809774600,17.836774658203126,28.5,16.920000076293945,-24.420000076293945
1759865045819875800,17.846875732421875,28.739999771118164,16.31999969482422,-24.959999084472656
1759865045829946600,17.856946533203125,28.5,16.139999389648438,-25.19999885559082
1759865045860159000,17.887158935546875,28.799999237060547,15.899999618530273,-25.19999885559082
1759865045880300500,17.907300537109375,28.619998931884766,16.139999389648438,-24.35999870300293
1759865045890371300,17.917371337890625,28.979999542236328,16.079999923706055,-24.719999313354492
1759865045900442400,17.9274423828125,28.619998931884766,16.3799991607666,-24.299999237060547
1759865045910543600,17.937543701171876,29.219999313354492,16.85999870300293,-24.35999870300293
1759865045920614400,17.947614501953126,29.219999313354492,16.5,-25.139999389648438
1759865045930685200,17.957685302734376,28.68000030517578,16.5,-24.959999084472656
1759865045991140600,18.018140625,28.85999870300293,16.079999923706055,-25.799999237060547
1759865046011282200,18.0382822265625,28.920000076293945,15.719999313354492,-26.03999900817871
1759865046021353000,18.04835302734375,28.85999870300293,15.719999313354492,-25.559999465942383
1759865046031423700,18.058423828125,29.099998474121094,15.420000076293945,-25.979999542236328
1759865046061666600,18.08866650390625,28.5,16.079999923706055,-25.01999855041504
1759865046071767800,18.098767822265625,28.3799991607666,16.3799991607666,-24.719999313354492
1759865046081838800,18.1088388671875,28.559999465942383,16.31999969482422,-24.779998779296875
1759865046091940000,18.118940185546876,28.68000030517578,15.960000038146973,-25.3799991607666
1759865046102011000,18.129010986328126,28.559999465942383,15.839999198913574,-25.19999885559082
1759865046112112000,18.139112060546875,28.3799991607666,15.539999961853027,-25.260000228881836
1759865046122183000,18.149182861328125,28.5,14.880000114440918,-25.979999542236328
1759865046132284400,18.159284423828126,28.739999771118164,15.359999656677246,-26.03999900817871
1759865046142355200,18.169355224609376,28.68000030517578,15,-26.15999984741211
1759865046192709000,18.219709228515626,28.559999465942383,17.279998779296875,-24.119998931884766
1759865046202780000,18.22977978515625,28.799999237060547,17.219999313354492,-24.35999870300293
1759865046212850700,18.2398505859375,29.219999313354492,16.920000076293945,-24.84000015258789
1759865046232992300,18.2599921875,29.459999084472656,16.68000030517578,-24.779998779296875
1759865046243093500,18.270093505859375,28.5,16.440000534057617,-24.959999084472656
1759865046263235300,18.2902353515625,27.779998779296875,16.139999389648438,-25.559999465942383
1759865046283377000,18.310376953125,28.920000076293945,15.420000076293945,-26.639999389648438
1759865046293447700,18.32044775390625,29.15999984741211,15.119999885559082,-26.760000228881836
1759865046303518500,18.3305185546875,29.8799991607666,15.239999771118164,-26.219999313354492
1759865046313589200,18.34058935546875,30.119998931884766,15.420000076293945,-25.31999969482422
1759865046323629600,18.350629638671876,29.69999885559082,15.359999656677246,-25.439998626708984
1759865046333700400,18.360700439453126,29.81999969482422,14.9399995803833,-25.559999465942383
1759865046343771100,18.370771240234376,29.279998779296875,14.880000114440918,-25.799999237060547
1759865046353842000,18.380842041015626,28.85999870300293,14.219999313354492,-26.279998779296875
1759865046383993300,18.410993408203126,30.059999465942383,14.399999618530273,-25.799999237060547
1759865046394064100,18.421064208984376,30.53999900817871,14.639999389648438,-25.5
1759865046404104400,18.4311044921875,31.3799991607666,14.219999313354492,-25.079999923706055
1759865046414175200,18.44117529296875,30.959999084472656,14.09999942779541,-24.65999984741211
1759865046424246000,18.45124609375,31.439998626708984,14.279999732971191,-24.119998931884766
1759865046434316800,18.46131689453125,31.920000076293945,14.09999942779541,-24.059999465942383
1759865046444387600,18.4713876953125,31.559999465942383,14.15999984741211,-23.939998626708984
1759865046454458400,18.481458251953125,31.67999839782715,14.15999984741211,-24.18000030517578
1759865046464559600,18.4915595703125,31.439998626708984,13.799999237060547,-24.53999900817871
1759865046484701200,18.511701171875,30.719999313354492,13.619999885559082,-25.19999885559082
1759865046514944300,18.5419443359375,31.139999389648438,13.199999809265137,-24.899999618530273
1759865046525015000,18.55201513671875,31.19999885559082,13.199999809265137,-24.779998779296875
1759865046535085800,18.5620859375,30.84000015258789,13.5,-24.299999237060547
1759865046545187000,18.57218701171875,30.53999900817871,13.139999389648438,-24.299999237060547
1759865046555257900,18.5822578125,30.65999984741211,13.139999389648438,-24.299999237060547
1759865046565328600,18.59232861328125,31.139999389648438,13.019999504089355,-24.479999542236328
1759865046575399400,18.6023994140625,31.559999465942383,13.079999923706055,-24.84000015258789
1759865046595571700,18.62257177734375,31.619998931884766,13.920000076293945,-24.479999542236328
1759865046605642500,18.632642578125,31.3799991607666,13.859999656677246,-24.600000381469727
1759865046615713300,18.64271337890625,31.31999969482422,13.380000114440918,-24.899999618530273
1759865046625814500,18.652814453125,31.139999389648438,13.199999809265137,-24.65999984741211
1759865046635915800,18.662915771484375,31.19999885559082,12.779999732971191,-25.19999885559082
1759865046645986600,18.672986572265625,31.139999389648438,12.84000015258789,-25.01999855041504
1759865046656057600,18.6830576171875,30.84000015258789,12.960000038146973,-25.19999885559082
1759865046666158800,18.693158935546876,30.479999542236328,12.899999618530273,-25.5
1759865046716574000,18.743573974609376,31.260000228881836,13.559999465942383,-24.719999313354492
1759865046726675200,18.75367529296875,31.01999855041504,13.739999771118164,-24.53999900817871
1759865046736776400,18.7637763671875,30.959999084472656,13.739999771118164,-23.8799991607666
1759865046746847200,18.77384716796875,30.719999313354492,13.859999656677246,-24
1759865046756948500,18.783948486328125,31.079999923706055,14.219999313354492,-23.8799991607666
1759865046767019500,18.79401953125,30.899999618530273,14.039999961853027,-24.479999542236328
1759865046797231900,18.82423193359375,30.899999618530273,13.799999237060547,-24.65999984741211
1759865046847555300,18.874555419921876,30.479999542236328,13.619999885559082,-24.479999542236328
1759865046857656600,18.884656494140625,31.079999923706055,14.039999961853027,-24.299999237060547
1759865046867697000,18.89469677734375,30.719999313354492,14.219999313354492,-23.8799991607666
1759865046877798100,18.904798095703125,31.079999923706055,13.979999542236328,-23.399999618530273
1759865046897909200,18.9249091796875,31.920000076293945,13.799999237060547,-23.579999923706055
1759865046907980000,18.93497998046875,32.57999801635742,13.679999351501465,-23.51999855041504
1759865046918050800,18.94505078125,32.880001068115234,13.979999542236328,-23.579999923706055
1759865046928152300,18.95515234375,32.459999084472656,14.519999504089355,-22.559999465942383
1759865046938192400,18.9651923828125,32.39999771118164,14.75999927520752,-22.31999969482422
1759865046948294000,18.9752939453125,32.099998474121094,14.34000015258789,-22.619998931884766
1759865046958334200,18.985334228515626,31.85999870300293,13.920000076293945,-22.739999771118164
1759865046968374300,18.995374267578125,31.85999870300293,12.960000038146973,-24
1759865047008657700,19.03565771484375,30.959999084472656,13.079999923706055,-24.299999237060547
1759865047018728400,19.045728515625,31.19999885559082,12.719999313354492,-24.420000076293945
1759865047028829700,19.05582958984375,31.559999465942383,12.539999961853027,-23.760000228881836
1759865047038900500,19.065900390625,31.559999465942383,12.179999351501465,-23.51999855041504
1759865047048940800,19.07594091796875,31.559999465942383,12.539999961853027,-23.03999900817871
1759865047059011600,19.086011474609375,31.260000228881836,12.539999961853027,-23.03999900817871
1759865047069082400,19.096082275390625,31.439998626708984,12.84000015258789,-23.03999900817871
1759865047109335000,19.1363349609375,32.34000015258789,13.619999885559082,-23.279998779296875
1759865047119345000,19.146344970703126,31.799999237060547,13.799999237060547,-22.619998931884766
1759865047129446100,19.156446044921875,31.799999237060547,13.619999885559082,-22.85999870300293
1759865047139517000,19.166516845703125,31.619998931884766,13.199999809265137,-23.219999313354492
1759865047149587700,19.176587646484375,30.84000015258789,13.079999923706055,-23.219999313354492
1759865047159658500,19.186658447265625,31.01999855041504,12.960000038146973,-23.15999984741211
1759865047169729300,19.196729248046875,31.19999885559082,13.380000114440918,-22.85999870300293
1759865047210012700,19.2370126953125,31.619998931884766,14.09999942779541,-22.079999923706055
1759865047220114000,19.247114013671876,31.67999839782715,14.15999984741211,-22.68000030517578
1759865047230215200,19.257215087890625,31.67999839782715,14.34000015258789,-22.799999237060547
1759865047240255500,19.26725537109375,31.85999870300293,14.219999313354492,-23.69999885559082
1759865047250356700,19.277356689453125,31.079999923706055,14.460000038146973,-23.69999885559082
1759865047260427500,19.287427490234375,31.079999923706055,14.880000114440918,-23.15999984741211
1759865047270529000,19.297529052734376,30.65999984741211,14.880000114440918,-23.03999900817871
1759865047280599800,19.307599853515626,30.959999084472656,14.880000114440918,-22.739999771118164
1759865047310781700,19.33778173828125,31.19999885559082,15.779999732971191,-23.15999984741211
1759865047320852500,19.3478525390625,30.53999900817871,15.839999198913574,-23.69999885559082
1759865047330953700,19.35795361328125,30.479999542236328,15.65999984741211,-24
1759865047340994000,19.367994140625,30.84000015258789,16.020000457763672,-23.639999389648438
1759865047351095300,19.37809521484375,30.35999870300293,15.899999618530273,-24.059999465942383
1759865047361166000,19.388166015625,30.35999870300293,16.31999969482422,-23.939998626708984
1759865047371236900,19.39823681640625,29.760000228881836,16.559999465942383,-24.479999542236328
1759865047381277200,19.408277099609375,29.69999885559082,16.559999465942383,-24.53999900817871
1759865047421591000,19.448591064453126,30.119998931884766,16.85999870300293,-24.719999313354492
1759865047441732600,19.468732666015626,30.53999900817871,17.100000381469727,-23.639999389648438
1759865047461843700,19.48884375,31.01999855041504,16.85999870300293,-23.279998779296875
1759865047471945000,19.498945068359376,31.559999465942383,16.440000534057617,-23.81999969482422
1759865047481985300,19.5089853515625,30.959999084472656,16.559999465942383,-23.81999969482422
1759865047492086500,19.51908642578125,31.139999389648438,16.979999542236328,-23.579999923706055
