time,seconds_elapsed,z,y,x
1759865027420054500,-0.552945556640625,8.835427284240723,3.8770220279693604,-1.753371238708496
1759865027460276500,-0.5127236328125,8.840143203735352,3.8652398586273193,-1.7556123733520508
1759865027470347300,-0.50265283203125,8.8456392288208,3.8532023429870605,-1.7543901205062866
1759865027480418000,-0.49258203125,8.849937438964844,3.8444788455963135,-1.7518481016159058
1759865027490519600,-0.48248046875,8.85061264038086,3.8436670303344727,-1.7502208948135376
1759865027500590300,-0.47240966796875,8.848461151123047,3.8488597869873047,-1.749687671661377
1759865027510661000,-0.4623388671875,8.846243858337402,3.8535330295562744,-1.7506108283996582
1759865027520732000,-0.45226806640625,8.844499588012695,3.8576714992523193,-1.7503089904785156
1759865027561137200,-0.41186279296875,8.836987495422363,3.878403902053833,-1.7424174547195435
1759865027581340000,-0.39166015625,8.835227012634277,3.8864195346832275,-1.7334599494934082
1759865027591410700,-0.38158935546875,8.833979606628418,3.891230344772339,-1.7290236949920654
1759865027601512000,-0.371488037109375,8.832393646240234,3.896352529525757,-1.7255851030349731
1759865027611613200,-0.36138671875,8.83094310760498,3.9012844562530518,-1.7218588590621948
1759865027621684000,-0.35131591796875,8.828445434570312,3.9084343910217285,-1.7184555530548096
1759865027631754800,-0.341245361328125,8.824080467224121,3.920105457305908,-1.7142822742462158
1759865027641825500,-0.331174560546875,8.823949813842773,3.920651435852051,-1.7137024402618408
1759865027661997800,-0.311002197265625,8.821085929870605,3.935107707977295,-1.6952167749404907
1759865027712351700,-0.260648193359375,8.812276840209961,3.9813437461853027,-1.6318871974945068
1759865027772837600,-0.200162353515625,8.832307815551758,4.006203651428223,-1.4529454708099365
1759865027813212400,-0.15978759765625,8.834589004516602,4.055976390838623,-1.2920817136764526
1759865027823283200,-0.149716796875,8.828827857971191,4.081456661224365,-1.2505630254745483
1759865027833323500,-0.139676513671875,8.822195053100586,4.110262870788574,-1.202080249786377
1759865027843394300,-0.129605712890625,8.820853233337402,4.129622459411621,-1.1441808938980103
1759865027853495600,-0.11950439453125,8.821334838867188,4.146355152130127,-1.0780407190322876
1759865027863566300,-0.10943359375,8.824285507202148,4.157372951507568,-1.0092730522155762
1759865027893778700,-0.07922119140625,8.819818496704102,4.2178263664245605,-0.7688543796539307
1759865027903819000,-0.069180908203125,8.827528953552246,4.220065116882324,-0.6604299545288086
1759865027913920300,-0.059079833984375,8.845273971557617,4.200329303741455,-0.5373600125312805
1759865027924021800,-0.048978271484375,8.858806610107422,4.1869940757751465,-0.40127456188201904
1759865027934092500,-0.038907470703125,8.871353149414062,4.171082019805908,-0.2675060033798218
1759865027944132900,-0.0288671875,8.89400577545166,4.129629135131836,-0.11496187001466751
1759865027954234000,-0.018765869140625,8.92365550994873,4.066476821899414,0.05022153630852699
1759865027964305000,-0.008695068359375,8.984678268432617,3.9220454692840576,0.2520122230052948
1759865027984416000,0.011416015625,9.173603057861328,3.379955530166626,0.7689533233642578
1759865028004588000,0.031588134765625,9.422892570495605,2.1888554096221924,1.608847975730896
1759865028014628400,0.04162841796875,9.454649925231934,1.888174057006836,1.7929826974868774
1759865028024668700,0.051668701171875,9.483832359313965,1.185206651687622,2.196040153503418
1759865028034770000,0.06177001953125,9.443920135498047,0.3894951343536377,2.6136295795440674
1759865028044810200,0.071810302734375,9.314525604248047,-0.47483155131340027,3.03059983253479
1759865028054911500,0.081911376953125,9.082748413085938,-1.3739876747131348,3.433108329772949
1759865028064951800,0.091951904296875,8.729545593261719,-2.309626817703247,3.8250558376312256
1759865028115367000,0.142366943359375,5.130589962005615,-6.43597412109375,5.331571578979492
1759865028125407200,0.1524072265625,4.0899271965026855,-6.998304843902588,5.519656181335449
1759865028135478000,0.16247802734375,2.974421501159668,-7.435483932495117,5.6601057052612305
1759865028145518300,0.172518310546875,1.8021275997161865,-7.732460021972656,5.756021976470947
1759865028155619600,0.18261962890625,0.6306036114692688,-7.8652663230896,5.823257923126221
1759865028165690400,0.1926904296875,-0.4792419373989105,-7.844231128692627,5.865900039672852
1759865028175761200,0.20276123046875,-0.9845142364501953,-7.789191722869873,5.876191139221191
1759865028216044300,0.243044189453125,-4.085580825805664,-6.695845127105713,5.885920524597168
1759865028256327700,0.28332763671875,-4.980401515960693,-6.060691833496094,5.885069847106934
1759865028276408000,0.303407958984375,-5.092260837554932,-5.969386100769043,5.882663249969482
1759865028296580400,0.323580322265625,-5.249473571777344,-5.901503086090088,5.8125457763671875
1759865028306620700,0.33362060546875,-5.268041610717773,-5.918761730194092,5.778092861175537
1759865028346873300,0.373873291015625,-5.259350776672363,-6.065814018249512,5.631650447845459
1759865028377116200,0.4041162109375,-5.297760963439941,-6.146132469177246,5.507195472717285
1759865029726937600,1.7539375,-4.562247276306152,-5.862972259521484,6.401707172393799
1759865029736877800,1.7638779296875,-4.581173419952393,-5.864704132080078,6.386585712432861
1759865029746548700,1.773548828125,-4.660852432250977,-5.868405342102051,6.325242519378662
1759865029756388900,1.783388916015625,-4.719562530517578,-5.869788646697998,6.280266761779785
1759865029766259700,1.793259765625,-4.6875481605529785,-5.8775224685668945,6.296985626220703
1759865029776230400,1.80323046875,-4.675651550292969,-5.877801895141602,6.305561542510986
1759865029786270700,1.813270751953125,-4.674449920654297,-5.874879837036133,6.309178352355957
1759865029796341500,1.823341552734375,-4.674422264099121,-5.869694709777832,6.314023017883301
1759865029806443000,1.833443115234375,-4.674311637878418,-5.86761999130249,6.316033363342285
1759865029816513800,1.843513671875,-4.6754069328308105,-5.862855911254883,6.319642543792725
1759865029826554000,1.85355419921875,-4.677380561828613,-5.85557222366333,6.324931621551514
1759865029836655400,1.8636552734375,-4.677389621734619,-5.853292465209961,6.3270344734191895
1759865029887009300,1.91400927734375,-4.681460380554199,-5.83445930480957,6.341402053833008
1759865029917252400,1.94425244140625,-4.680385589599609,-5.833310604095459,6.343253135681152
1759865029927353600,1.954353515625,-4.678986072540283,-5.833105564117432,6.344475746154785
1759865029947525600,1.974525634765625,-4.674050807952881,-5.835660934448242,6.34576416015625
1759865029967667200,1.994667236328125,-4.666438579559326,-5.842240810394287,6.3453145027160645
1759865030008042000,2.0350419921875,-4.651310920715332,-5.8476080894470215,6.351476192474365
1759865030018082300,2.045082275390625,-4.648501396179199,-5.847813129425049,6.353338718414307
1759865030028183600,2.05518359375,-4.644535064697266,-5.847679615020752,6.3563618659973145
1759865030078537700,2.105537841796875,-4.625871658325195,-5.839960098266602,6.377035140991211
1759865030088608500,2.1156083984375,-4.627100467681885,-5.836388111114502,6.379415988922119
1759865030098679300,2.12567919921875,-4.626740455627441,-5.834669589996338,6.3812456130981445
1759865030108780500,2.135780517578125,-4.6295084953308105,-5.831604957580566,6.382040023803711
1759865030118851300,2.145851318359375,-4.633110046386719,-5.828481197357178,6.382282257080078
1759865030128922000,2.155922119140625,-4.635895729064941,-5.826780796051025,6.381812572479248
1759865030169205500,2.19620556640625,-4.632504940032959,-5.829428672790527,6.3818535804748535
1759865030179306800,2.206306640625,-4.628172397613525,-5.832520961761475,6.382174968719482
1759865030189377500,2.21637744140625,-4.622802734375,-5.836542129516602,6.382390022277832
1759865030199448300,2.2264482421875,-4.617396831512451,-5.840307712554932,6.382855415344238
1759865030209488600,2.236488525390625,-4.610783576965332,-5.843255996704102,6.384939670562744
1759865030219559400,2.246559326171875,-4.604844093322754,-5.845209121704102,6.3874359130859375
1759865030229630200,2.256630126953125,-4.596187114715576,-5.849698066711426,6.389556407928467
1759865030239701000,2.266700927734375,-4.595012187957764,-5.848705291748047,6.391316890716553
1759865030249741300,2.2767412109375,-4.591444492340088,-5.84971284866333,6.392959117889404
1759865030269852400,2.296852294921875,-4.583616256713867,-5.853039264678955,6.395533561706543
1759865030279953700,2.30695361328125,-4.5793328285217285,-5.853457450866699,6.398214340209961
1759865030289994000,2.316993896484375,-4.5751190185546875,-5.853065490722656,6.401584625244141
1759865030300064800,2.327064697265625,-4.570903301239014,-5.852989196777344,6.404669761657715
1759865030310105000,2.33710498046875,-4.566311359405518,-5.8530683517456055,6.407871723175049
1759865030320175900,2.34717578125,-4.560995578765869,-5.853488445281982,6.411269187927246
1759865030330277000,2.357277099609375,-4.554810523986816,-5.853527545928955,6.415629863739014
1759865030340348000,2.367347900390625,-4.549340724945068,-5.851933479309082,6.420962333679199
1759865030360459000,2.387458984375,-4.538002967834473,-5.852384567260742,6.428574562072754
1759865030370529800,2.39752978515625,-4.531449317932129,-5.854115962982178,6.4316182136535645
1759865030420884000,2.447884033203125,-4.4914164543151855,-5.862545490264893,6.4519877433776855
1759865030461228000,2.48822802734375,-4.470937728881836,-5.870481014251709,6.458988189697266
1759865030501572400,2.528572265625,-4.445096015930176,-5.885955333709717,6.462742328643799
1759865030511673600,2.538673583984375,-4.4415717124938965,-5.889770030975342,6.461689472198486
1759865030531815200,2.558815185546875,-4.425210952758789,-5.8974127769470215,6.465946197509766
1759865030541886000,2.568885986328125,-4.421195983886719,-5.898633003234863,6.467576503753662
1759865030582169300,2.60916943359375,-4.412283897399902,-5.896955490112305,6.475186824798584
1759865030622422000,2.649422119140625,-4.405884742736816,-5.882343769073486,6.492809772491455
1759865030632523300,2.659523193359375,-4.409921169281006,-5.879036903381348,6.493068218231201
1759865030642594000,2.669593994140625,-4.414356231689453,-5.87440299987793,6.494248867034912
1759865030662705200,2.689705078125,-4.423233985900879,-5.861819267272949,6.499574661254883
1759865030682816300,2.709816162109375,-4.427846431732178,-5.850522994995117,6.506608486175537
1759865030713059000,2.74005908203125,-4.429166316986084,-5.840780735015869,6.514458179473877
1759865030733200600,2.76020068359375,-4.430309295654297,-5.835241794586182,6.51864767074585
1759865030753373000,2.780373046875,-4.428603649139404,-5.831108570098877,6.523497104644775
1759865030763413200,2.790413330078125,-4.426217079162598,-5.830981731414795,6.525234222412109
1759865030813767200,2.84076708984375,-4.4109086990356445,-5.835503578186035,6.531556606292725
1759865030823868400,2.850868408203125,-4.40744686126709,-5.836231231689453,6.53324031829834
1759865030844010000,2.871010009765625,-4.396543025970459,-5.83834171295166,6.538701057434082
1759865030854050300,2.88105029296875,-4.392399787902832,-5.838324069976807,6.541499137878418
1759865030874222600,2.90122265625,-4.388287544250488,-5.836450576782227,6.545929908752441
1759865030944626400,2.97162646484375,-4.387400150299072,-5.825591564178467,6.556188106536865
1759865030954666800,2.981666748046875,-4.387082576751709,-5.825867652893066,6.556156635284424
1759865030974808300,3.001808349609375,-4.383969783782959,-5.827028751373291,6.557205677032471
1759865030984909800,3.011909912109375,-4.382303714752197,-5.827945232391357,6.557503700256348
1759865030995011000,3.022010986328125,-4.379971504211426,-5.8293256759643555,6.5578389167785645
1759865031005112300,3.0321123046875,-4.378089904785156,-5.8311357498168945,6.557485103607178
1759865031015213600,3.042213623046875,-4.376365661621094,-5.832487106323242,6.557432174682617
1759865031025315000,3.052315185546875,-4.373912334442139,-5.8338727951049805,6.557837009429932
1759865031035416300,3.062416259765625,-4.371401786804199,-5.835652828216553,6.557922840118408
1759865031045487000,3.072487060546875,-4.367621898651123,-5.838105201721191,6.558263301849365
1759865031055558000,3.082557861328125,-4.363460540771484,-5.840910911560059,6.558534622192383
1759865031065628700,3.092628662109375,-4.3581719398498535,-5.843635559082031,6.559621810913086
1759865031085770200,3.112770263671875,-4.349034786224365,-5.846747875213623,6.562915802001953
1759865031115982800,3.14298291015625,-4.347445487976074,-5.843212127685547,6.567111015319824
1759865031126084000,3.153083984375,-4.348229885101318,-5.839917182922363,6.569523334503174
1759865031136155000,3.16315478515625,-4.34841775894165,-5.83781623840332,6.571267604827881
1759865031146195200,3.1731953125,-4.345211982727051,-5.837658405303955,6.573531150817871
1759865031156296400,3.18329638671875,-4.341701030731201,-5.837397575378418,6.576080799102783
1759865031166367200,3.1933671875,-4.33743953704834,-5.837325572967529,6.578951835632324
1759865031186448000,3.21344775390625,-4.336741924285889,-5.837649345397949,6.579128265380859
1759865031206620000,3.233619873046875,-4.338870525360107,-5.836219787597656,6.5789923667907715
1759865031216660200,3.24366015625,-4.339324474334717,-5.835937023162842,6.578944683074951
1759865031226731000,3.25373095703125,-4.339462757110596,-5.836190700531006,6.578628063201904
1759865031236832300,3.263832275390625,-4.340773582458496,-5.837331295013428,6.5767502784729
1759865031246933800,3.273933837890625,-4.342988967895508,-5.838200569152832,6.574520111083984
1759865031257035000,3.284034912109375,-4.345833778381348,-5.839452266693115,6.571523666381836
1759865031267075300,3.294075439453125,-4.349653720855713,-5.840497016906738,6.568066120147705
1759865031277146000,3.30414599609375,-4.35389518737793,-5.841500759124756,6.564364910125732
1759865031307297500,3.334297607421875,-4.369975566864014,-5.8441267013549805,6.55133056640625
1759865031317368300,3.344368408203125,-4.375222206115723,-5.845512390136719,6.546584606170654
1759865031327469600,3.354469482421875,-4.379522323608398,-5.847983360290527,6.541504859924316
1759865031337540400,3.364540283203125,-4.382794380187988,-5.850033760070801,6.537478923797607
1759865031347580700,3.37458056640625,-4.38636589050293,-5.851255416870117,6.533989429473877
1759865031357682000,3.384681884765625,-4.390278339385986,-5.852203369140625,6.530513286590576
1759865031367783200,3.394783203125,-4.3936896324157715,-5.853121757507324,6.527395725250244
1759865031377854000,3.40485400390625,-4.395961761474609,-5.854870796203613,6.524292469024658
1759865031387894300,3.414894287109375,-4.396996974945068,-5.856807231903076,6.521861553192139
1759865031397995800,3.424995849609375,-4.398275852203369,-5.857803821563721,6.5201005935668945
1759865031408035800,3.435035888671875,-4.398468971252441,-5.858675956726074,6.519186973571777
1759865031418106600,3.445106689453125,-4.397939682006836,-5.859250068664551,6.5190277099609375
1759865031428116500,3.455116455078125,-4.396810054779053,-5.85939359664917,6.519659042358398
1759865031438217700,3.4652177734375,-4.395121097564697,-5.8593363761901855,6.52085018157959
1759865031448258000,3.475258056640625,-4.393113613128662,-5.860012054443359,6.5215959548950195
1759865031458298400,3.48529833984375,-4.391672134399414,-5.859476566314697,6.523045063018799
1759865031468369200,3.495369140625,-4.390501976013184,-5.858837604522705,6.524409294128418
1759865031478440000,3.50543994140625,-4.389379501342773,-5.856538772583008,6.527227878570557
1759865031508683000,3.53568310546875,-4.384198188781738,-5.8508501052856445,6.535805702209473
1759865031528794000,3.555794189453125,-4.383002281188965,-5.846165180206299,6.540796756744385
1759865031548935700,3.575935791015625,-4.383023262023926,-5.840163230895996,6.546144485473633
1759865031559006500,3.58600634765625,-4.38500452041626,-5.835818290710449,6.548689842224121
1759865031569077200,3.5960771484375,-4.387509822845459,-5.831038475036621,6.551273345947266
1759865031579017500,3.606017578125,-4.38975715637207,-5.826320648193359,6.553961753845215
1759865031609229800,3.636229736328125,-4.394381046295166,-5.816385269165039,6.5596842765808105
1759865031619300600,3.646300537109375,-4.39629602432251,-5.813138008117676,6.561283588409424
1759865031629371400,3.656371337890625,-4.396886348724365,-5.810446739196777,6.563272476196289
1759865031639473000,3.666472900390625,-4.396062850952148,-5.809659957885742,6.564516067504883
1759865031649543700,3.676543701171875,-4.394794940948486,-5.809859275817871,6.565189361572266
1759865031659614500,3.686614501953125,-4.392228126525879,-5.8118791580200195,6.565117835998535
1759865031669685200,3.696685302734375,-4.387761116027832,-5.8141865730285645,6.566061973571777
1759865031679786500,3.706786376953125,-4.3824591636657715,-5.815804481506348,6.568174362182617
1759865031699867100,3.7268671875,-4.376704216003418,-5.816983222961426,6.5709614753723145
1759865031720039200,3.7470390625,-4.379876136779785,-5.815263271331787,6.57037353515625
1759865031740211500,3.76721142578125,-4.388152599334717,-5.812001705169678,6.5677337646484375
1759865031750251500,3.77725146484375,-4.390564441680908,-5.811593055725098,6.566483974456787
1759865031760322300,3.787322265625,-4.38850736618042,-5.813364505767822,6.566293239593506
1759865031770393300,3.797393310546875,-4.382844924926758,-5.817147254943848,6.566725730895996
1759865031780494600,3.80749462890625,-4.370048999786377,-5.82272481918335,6.570309162139893
1759865031810737400,3.8377373046875,-4.317107677459717,-5.844841957092285,6.58565092086792
1759865031820777700,3.84777783203125,-4.301946640014648,-5.853773593902588,6.5876383781433105
1759865031830879000,3.85787890625,-4.2739458084106445,-5.866650581359863,6.5944061279296875
1759865031840949800,3.86794970703125,-4.243468284606934,-5.8789448738098145,6.603137016296387
1759865031851020500,3.8780205078125,-4.2181396484375,-5.891002655029297,6.608614444732666
1759865031861122000,3.8881220703125,-4.190030097961426,-5.901463031768799,6.61715841293335
1759865031871223300,3.898223388671875,-4.160947799682617,-5.909702777862549,6.628148555755615
1759865031881263600,3.908263671875,-4.141791820526123,-5.923941135406494,6.6274333000183105
1759865031901466000,3.928466064453125,-4.112443447113037,-5.960126876831055,6.613254547119141
1759865031931709200,3.958709228515625,-4.109906196594238,-6.0127177238464355,6.567058563232422
1759865031941749500,3.96874951171875,-4.120809078216553,-6.0253095626831055,6.548664093017578
1759865031951820300,3.9788203125,-4.141455173492432,-6.0315351486206055,6.529881954193115
1759865031961891000,3.98889111328125,-4.175577640533447,-6.0298285484313965,6.509695529937744
1759865031971961900,3.9989619140625,-4.221298694610596,-6.023068904876709,6.486423969268799
1759865031992073000,4.019072998046875,-4.339415550231934,-5.988214015960693,6.440587043762207
1759865032012214500,4.039214599609375,-4.479100704193115,-5.932748794555664,6.396134376525879
1759865032032356000,4.059356201171875,-4.648505210876465,-5.840886116027832,6.359705924987793
1759865032052528000,4.079528076171875,-4.858304500579834,-5.742161750793457,6.292444229125977
1759865032072731000,4.09973095703125,-5.0856099128723145,-5.635600566864014,6.208621978759766
1759865032082771200,4.109771240234375,-5.193586826324463,-5.583903789520264,6.165798187255859
1759865032092842000,4.119842041015625,-5.291000843048096,-5.537106513977051,6.125041484832764
1759865032102882300,4.12988232421875,-5.379090309143066,-5.495072841644287,6.086047172546387
1759865032133064200,4.160064208984375,-5.4814629554748535,-5.491929054260254,5.996890068054199
1759865032143135000,4.170135009765625,-5.446114540100098,-5.551835536956787,5.973894119262695
1759865032153236200,4.180236328125,-5.4900617599487305,-5.556861400604248,5.928821563720703
1759865032163307000,4.19030712890625,-5.553668022155762,-5.545928955078125,5.879615783691406
1759865032173377800,4.200377685546875,-5.599298000335693,-5.550351619720459,5.831969261169434
1759865032183418000,4.210418212890625,-5.653513431549072,-5.544325828552246,5.785210609436035
1759865032193489000,4.220489013671875,-5.723498821258545,-5.520361423492432,5.739128112792969
1759865032223762400,4.250762451171875,-5.8101301193237305,-5.4910430908203125,5.679901123046875
1759865032233833200,4.260833251953125,-5.822459697723389,-5.492186546325684,5.666149139404297
1759865032243904000,4.270904052734375,-5.885595321655273,-5.472072124481201,5.620194435119629
1759865032253944300,4.2809443359375,-5.961010932922363,-5.4537200927734375,5.558207988739014
1759865032264015000,4.29101513671875,-5.985146522521973,-5.4481916427612305,5.537655830383301
1759865032274055400,4.301055419921875,-5.95595645904541,-5.459427356719971,5.558025360107422
1759865032284156700,4.31115673828125,-5.948633670806885,-5.460011959075928,5.565291404724121
1759865032294258000,4.3212578125,-5.959532737731934,-5.454232692718506,5.559288024902344
1759865032304359200,4.331359130859375,-5.951244831085205,-5.460374355316162,5.562143802642822
1759865032334602200,4.361602294921875,-5.806319236755371,-5.523478031158447,5.652279376983643
1759865032344673000,4.371673095703125,-5.759217739105225,-5.543406963348389,5.680886268615723
1759865032354743800,4.381743896484375,-5.722732067108154,-5.5469794273376465,5.714168071746826
1759865032364814600,4.391814697265625,-5.724836349487305,-5.557551860809326,5.701774597167969
1759865032374885400,4.401885498046875,-5.728514671325684,-5.5577521324157715,5.697887897491455
1759865032384925700,4.41192578125,-5.736236095428467,-5.563346862792969,5.684646129608154
1759865032395027000,4.42202685546875,-5.731666088104248,-5.561267375946045,5.691286087036133
1759865032405067300,4.4320673828125,-5.734512805938721,-5.564216136932373,5.685533046722412
1759865032435279600,4.462279541015625,-5.876803398132324,-5.572954177856445,5.529536724090576
1759865032445350400,4.472350341796875,-5.945260524749756,-5.586483478546143,5.442010879516602
1759865032455421200,4.482421142578125,-5.964466094970703,-5.611203670501709,5.3953657150268555
1759865032465461500,4.49246142578125,-5.953139305114746,-5.657536029815674,5.359371185302734
1759865032475501800,4.502501708984375,-5.932025909423828,-5.684322357177734,5.35443115234375
1759865032485572600,4.512572509765625,-5.867466926574707,-5.756146430969238,5.348832607269287
1759865032495643400,4.522643310546875,-5.775120258331299,-5.847468376159668,5.350279331207275
1759865032545966800,4.572966796875,-5.045148849487305,-6.613965034484863,5.193490982055664
1759865032556068400,4.583068359375,-4.976715087890625,-6.708943843841553,5.137388229370117
1759865032566108700,4.593108642578125,-4.82291316986084,-6.912078857421875,5.013288974761963
1759865032576179500,4.603179443359375,-4.656589508056641,-7.139363765716553,4.849339008331299
1759865032586280700,4.61328076171875,-4.506339073181152,-7.378849029541016,4.627734661102295
1759865032596321000,4.623321044921875,-4.31488037109375,-7.636751174926758,4.385456085205078
1759865032606391800,4.633391845703125,-4.098077297210693,-7.884561061859131,4.148478984832764
1759865032636604200,4.663604248046875,-3.5542449951171875,-8.473030090332031,3.4271726608276367
1759865032646705400,4.673705322265625,-3.4041054248809814,-8.626200675964355,3.189218044281006
1759865032656745700,4.683745849609375,-3.2147839069366455,-8.778576850891113,2.961787462234497
1759865032666816500,4.69381640625,-2.976120710372925,-8.937544822692871,2.7264366149902344
1759865032676887300,4.70388720703125,-2.744781494140625,-9.085050582885742,2.469508647918701
1759865032686988800,4.71398876953125,-2.5533978939056396,-9.207414627075195,2.2077291011810303
1759865032697059600,4.7240595703125,-2.37734055519104,-9.31445598602295,1.9389488697052002
1759865032707099600,4.734099609375,-2.184668779373169,-9.413222312927246,1.6699820756912231
1759865032717170700,4.744170654296875,-1.9891700744628906,-9.497513771057129,1.4180431365966797
1759865032757392600,4.784392578125,-1.0980769395828247,-9.730706214904785,0.5272678136825562
1759865032777534500,4.804534423828125,-0.7722422480583191,-9.775641441345215,0.1043069064617157
1759865032787605200,4.814605224609375,-0.6644669771194458,-9.78388786315918,-0.06655336916446686
1759865032797676000,4.824676025390625,-0.594104528427124,-9.787066459655762,-0.1754164844751358
1759865032807746800,4.834746826171875,-0.5386743545532227,-9.785602569580078,-0.3496153950691223
1759865032817817600,4.844817626953125,-0.49051031470298767,-9.781874656677246,-0.4947108328342438
1759865032827827200,4.8548271484375,-0.43775779008865356,-9.779253959655762,-0.5873221755027771
1759865032868110600,4.895110595703125,-0.20792846381664276,-9.777458190917969,-0.7269695997238159
1759865032878181400,4.905181396484375,-0.16388650238513947,-9.778787612915039,-0.7203224301338196
1759865032888252200,4.915252197265625,-0.1624380499124527,-9.781123161315918,-0.688227653503418
1759865032898353400,4.925353515625,-0.1701432168483734,-9.784028053283691,-0.6436319947242737
1759865032908393700,4.935393798828125,-0.1597767174243927,-9.787355422973633,-0.5937367677688599
1759865032918495000,4.945494873046875,-0.16347967088222504,-9.791796684265137,-0.5141770243644714
1759865032928565800,4.955565673828125,-0.2423001080751419,-9.795293807983398,-0.40483182668685913
1759865032938636500,4.965636474609375,-0.38896891474723816,-9.794441223144531,-0.29671573638916016
1759865032948676900,4.9756767578125,-0.5924187898635864,-9.78609848022461,-0.22742900252342224
1759865032958778000,4.985778076171875,-0.7084563374519348,-9.780473709106445,-0.10407792031764984
1759865032968849200,4.99584912109375,-0.8829103708267212,-9.766758918762207,0.03596300259232521
1759865032978920000,5.005919921875,-1.0778274536132812,-9.746706008911133,0.10207418352365494
1759865032988960000,5.0159599609375,-1.2073177099227905,-9.728597640991211,0.2591632604598999
1759865032999061500,5.0260615234375,-1.285961627960205,-9.715086936950684,0.3657468855381012
1759865033009162800,5.036162841796875,-1.4031126499176025,-9.69333267211914,0.49092167615890503
1759865033019233500,5.046233642578125,-1.58465576171875,-9.658565521240234,0.609419047832489
1759865033029273900,5.05627392578125,-1.7792255878448486,-9.618965148925781,0.6930179595947266
1759865033039375000,5.066375,-2.0099949836730957,-9.570606231689453,0.7306392192840576
1759865033059516700,5.0865166015625,-2.6853461265563965,-9.395604133605957,0.8258113861083984
1759865033069587500,5.09658740234375,-3.123011589050293,-9.25228500366211,0.9013628959655762
1759865033079627800,5.106627685546875,-3.6272494792938232,-9.051545143127441,1.0406783819198608
1759865033089698600,5.116698486328125,-4.158133506774902,-8.809224128723145,1.1304397583007812
1759865033099739000,5.12673876953125,-4.695494651794434,-8.518463134765625,1.2484019994735718
1759865033109840100,5.136840087890625,-5.301387786865234,-8.15318775177002,1.2614339590072632
1759865033119880400,5.14688037109375,-5.987307071685791,-7.702939033508301,0.993636965751648
1759865033129951200,5.156951171875,-6.66802978515625,-7.155216217041016,0.7146183252334595
1759865033140052700,5.167052734375,-7.256424903869629,-6.572175025939941,0.566756546497345
1759865033150123500,5.17712353515625,-7.688401699066162,-6.05882453918457,0.5912231802940369
1759865033170234600,5.197234619140625,-8.095571517944336,-5.480947971343994,0.7689818143844604
1759865033200447000,5.227447021484375,-7.904903411865234,-5.773440361022949,0.591844916343689
1759865033220588500,5.247588623046875,-7.68563175201416,-6.076125621795654,0.4267556369304657
1759865033230659300,5.257659423828125,-7.607172012329102,-6.180330276489258,0.323820024728775
1759865033240699600,5.26769970703125,-7.528500556945801,-6.280500888824463,0.21768005192279816
1759865033260810800,5.287810791015625,-7.5044989585876465,-6.3127031326293945,-0.05186068266630173
1759865033280952300,5.307952392578125,-7.484162330627441,-6.330353260040283,-0.2904004156589508
1759865033311195100,5.338195068359375,-7.488430023193359,-6.302677154541016,-0.608350932598114
1759865033321266000,5.348265869140625,-7.533491134643555,-6.240153789520264,-0.6909244656562805
1759865033331306200,5.35830615234375,-7.572265148162842,-6.182311058044434,-0.7811779975891113
1759865033341407700,5.36840771484375,-7.600503921508789,-6.139056205749512,-0.8454393148422241
1759865033371650600,5.398650634765625,-7.460495948791504,-6.277489185333252,-1.0509527921676636
1759865033381721300,5.408721435546875,-7.330595970153809,-6.417684555053711,-1.1162726879119873
1759865033391822600,5.418822509765625,-7.179316520690918,-6.577574253082275,-1.1676255464553833
1759865033401893400,5.428893310546875,-7.023402214050293,-6.740990161895752,-1.1837537288665771
1759865033411995000,5.438994873046875,-6.790726184844971,-6.973006725311279,-1.1973145008087158
1759865033432136400,5.459136474609375,-6.605884075164795,-7.145461082458496,-1.2145216464996338
1759865033442207200,5.469207275390625,-6.517632484436035,-7.225113868713379,-1.220070242881775
1759865033452278000,5.479278076171875,-6.450677394866943,-7.286831378936768,-1.2088431119918823
1759865033492622300,5.519622314453125,-6.41977596282959,-7.3605194091796875,-0.8829869627952576
1759865033502723600,5.5297236328125,-6.419047832489014,-7.369842052459717,-0.8072668313980103
1759865033543037200,5.570037109375,-6.27782678604126,-7.522212982177734,-0.41902855038642883
1759865033563209500,5.59020947265625,-6.221006870269775,-7.577474594116211,-0.22649317979812622
1759865033573280300,5.6002802734375,-6.158071041107178,-7.632061958312988,-0.013672552071511745
1759865033583351000,5.61035107421875,-6.114898681640625,-7.665282249450684,0.147950679063797
1759865033593452300,5.620452392578125,-6.084554195404053,-7.684588432312012,0.30930209159851074
1759865033603523000,5.630523193359375,-6.066191673278809,-7.695371627807617,0.3911053538322449
1759865033613624300,5.640624267578125,-6.029994010925293,-7.714343547821045,0.5462921261787415
1759865033623725800,5.650725830078125,-6.0041961669921875,-7.712993144989014,0.793541669845581
1759865033633796600,5.660796630859375,-5.997996807098389,-7.708745002746582,0.8773086071014404
1759865033643867400,5.670867431640625,-6.003420829772949,-7.683708667755127,1.044029712677002
1759865033653968600,5.68096875,-6.012818813323975,-7.653946399688721,1.1972764730453491
1759865033684211500,5.71121142578125,-6.146793842315674,-7.4333906173706055,1.7697510719299316
1759865033734596000,5.76159619140625,-6.329537391662598,-6.9724650382995605,2.737166404724121
1759865033744667000,5.7716669921875,-6.318722248077393,-6.905734062194824,2.9248886108398438
1759865033754737700,5.781737548828125,-6.301010608673096,-6.842970848083496,3.105057954788208
1759865033764808400,5.791808349609375,-6.294454574584961,-6.808434009552002,3.193033218383789
1759865033815223600,5.8422236328125,-6.110012054443359,-6.503000259399414,4.068061828613281
1759865033825294300,5.85229443359375,-6.0977373123168945,-6.466709136962891,4.143630504608154
1759865033835365000,5.862365234375,-6.082752704620361,-6.340387344360352,4.355456829071045
1759865033845436000,5.872435791015625,-6.092545509338379,-6.290140151977539,4.414224147796631
1759865033855537200,5.882537109375,-6.15925931930542,-6.1358513832092285,4.537097930908203
1759865033865577500,5.892577392578125,-6.177251815795898,-6.052033424377441,4.624378204345703
1759865033885719000,5.912718994140625,-6.16918420791626,-5.910632610321045,4.814136505126953
1759865033905860900,5.93286083984375,-6.121109962463379,-5.791711807250977,5.015822887420654
1759865033915901000,5.94290087890625,-6.088792324066162,-5.746347904205322,5.106517314910889
1759865033926002400,5.95300244140625,-6.056856155395508,-5.700514793395996,5.195096969604492
1759865033936042800,5.963042724609375,-6.045763969421387,-5.676680088043213,5.233971118927002
1759865033946113500,5.973113525390625,-6.029739856719971,-5.628952980041504,5.303539752960205
1759865033956214800,5.98321484375,-6.019042015075684,-5.57534646987915,5.371877670288086
1759865033966285600,5.99328564453125,-6.012660980224609,-5.482993125915527,5.473121643066406
1759865034006599200,6.03359912109375,-6.0622358322143555,-5.234516143798828,5.658579349517822
1759865034036811800,6.063811767578125,-6.101325035095215,-5.00644063949585,5.820635795593262
1759865034046851800,6.073851806640625,-6.09834623336792,-4.947760581970215,5.87369441986084
1759865034056953300,6.083953369140625,-6.089460372924805,-4.891912460327148,5.929420471191406
1759865034067024100,6.094024169921875,-6.071964740753174,-4.816456317901611,6.008611679077148
1759865034107276800,6.13427685546875,-5.985230922698975,-4.704249858856201,6.182028293609619
1759865034117378000,6.1443779296875,-5.970118522644043,-4.698153018951416,6.201249599456787
1759865034127448800,6.15444873046875,-5.939321041107178,-4.6906867027282715,6.2363715171813965
1759865034137519600,6.16451953125,-5.905628681182861,-4.693962097167969,6.265829086303711
1759865034147560000,6.174559814453125,-5.85459566116333,-4.714169025421143,6.298469543457031
1759865034157661200,6.1846611328125,-5.835994720458984,-4.722195625305176,6.309712886810303
1759865034167732000,6.19473193359375,-5.806727409362793,-4.736583232879639,6.32590389251709
1759865034187873800,6.214873779296875,-5.759818077087402,-4.776169776916504,6.339017868041992
1759865034208045800,6.2350458984375,-5.728307247161865,-4.803055763244629,6.347249507904053
1759865034218116600,6.24511669921875,-5.706902980804443,-4.817975997924805,6.355216026306152
1759865034228187400,6.2551875,-5.6827521324157715,-4.835511207580566,6.363534450531006
1759865034238227700,6.265227783203125,-5.661158084869385,-4.852386951446533,6.369932651519775
1759865034248298500,6.275298583984375,-5.642198085784912,-4.867117881774902,6.375511646270752
1759865034258369300,6.285369384765625,-5.634875774383545,-4.880539417266846,6.371729373931885
1759865034268348700,6.2953486328125,-5.630223274230957,-4.89223575592041,6.366871356964111
1759865034278419500,6.30541943359375,-5.631148338317871,-4.91062593460083,6.351872444152832
1759865034288490200,6.315490234375,-5.632232189178467,-4.9180474281311035,6.345168113708496
1759865034308540200,6.3355400390625,-5.6481614112854,-4.945484161376953,6.3095831871032715
1759865034318641400,6.345641357421875,-5.65896463394165,-4.961463928222656,6.287318229675293
1759865034328743000,6.355742919921875,-5.668699741363525,-4.97649621963501,6.266635417938232
1759865034338844200,6.36584423828125,-5.6776204109191895,-5.003647804260254,6.236867904663086
1759865034348915000,6.3759150390625,-5.6812615394592285,-5.012281894683838,6.226614952087402
1759865034358985700,6.38598583984375,-5.691473960876465,-5.031713008880615,6.201562881469727
1759865034369056500,6.396056396484375,-5.710010528564453,-5.049488067626953,6.16999626159668
1759865034389198000,6.416197998046875,-5.758378982543945,-5.076106071472168,6.102835178375244
1759865034399268900,6.426268798828125,-5.77717924118042,-5.090950012207031,6.072629928588867
1759865034409339600,6.436339599609375,-5.791831016540527,-5.11009407043457,6.042520999908447
1759865034419380000,6.4463798828125,-5.803964614868164,-5.129108428955078,6.014701843261719
1759865034429420300,6.456420166015625,-5.809485912322998,-5.144969940185547,5.995797157287598
1759865034439491000,6.466490966796875,-5.807344436645508,-5.161374092102051,5.983755588531494
1759865034449561900,6.476561767578125,-5.795465469360352,-5.184780120849609,5.975034713745117
1759865034459632600,6.486632568359375,-5.768866539001465,-5.220017433166504,5.970095157623291
1759865034469703400,6.496703369140625,-5.732863426208496,-5.2626519203186035,5.967341423034668
1759865034479805000,6.506804931640625,-5.698591232299805,-5.30133056640625,5.965932846069336
1759865034510017300,6.537017333984375,-5.687467098236084,-5.326213836669922,5.954373836517334
1759865034530098000,6.557097900390625,-5.735284328460693,-5.265577793121338,5.962429046630859
1759865034540168700,6.567168701171875,-5.781445503234863,-5.2198052406311035,5.958096027374268
1759865034550209000,6.577208984375,-5.812998294830322,-5.182405471801758,5.960047245025635
1759865034560279800,6.58727978515625,-5.839601039886475,-5.146861553192139,5.9648356437683105
1759865034570381000,6.597381103515625,-5.848219871520996,-5.121099472045898,5.978549957275391
1759865034580451800,6.607451904296875,-5.838631629943848,-5.112171173095703,5.9955339431762695
1759865034610633700,6.6376337890625,-5.768045902252197,-5.107540607452393,6.067382335662842
1759865034620674000,6.647674072265625,-5.7513203620910645,-5.104532241821289,6.0857625007629395
1759865034630714400,6.65771435546875,-5.743499755859375,-5.095849990844727,6.100401401519775
1759865034640815600,6.667815673828125,-5.744746685028076,-5.078592777252197,6.113606929779053
1759865034650886400,6.677886474609375,-5.758462905883789,-5.0476155281066895,6.126340866088867
1759865034660987600,6.687987548828125,-5.783969879150391,-5.005369186401367,6.136969089508057
1759865034671058400,6.698058349609375,-5.817407608032227,-4.9565348625183105,6.144998550415039
1759865034681098800,6.7080986328125,-5.853096961975098,-4.905265808105469,6.152241230010986
1759865034711341800,6.738341796875,-5.914206504821777,-4.777928829193115,6.19386100769043
1759865034721412600,6.74841259765625,-5.926170825958252,-4.7336297035217285,6.216403484344482
1759865034731452700,6.75845263671875,-5.93624210357666,-4.6905364990234375,6.239416599273682
1759865034741523700,6.768523681640625,-5.940436840057373,-4.656325817108154,6.261013031005859
1759865034751594500,6.778594482421875,-5.9209818840026855,-4.638282299041748,6.292752742767334
1759865034761665300,6.788665283203125,-5.866579532623291,-4.646608829498291,6.337403774261475
1759865034771705600,6.79870556640625,-5.8015522956848145,-4.652865409851074,6.392435073852539
1759865034781806800,6.808806884765625,-5.734557151794434,-4.674367427825928,6.437047004699707
1759865034791877600,6.818877685546875,-5.658524036407471,-4.70962381362915,6.478501796722412
1759865034822090000,6.849090087890625,-5.429227828979492,-4.763482093811035,6.633484840393066
1759865034832191200,6.859191162109375,-5.3470845222473145,-4.78941535949707,6.681363582611084
1759865034842231600,6.8692314453125,-5.322690486907959,-4.795262336730957,6.696630001068115
1759865034852302300,6.87930224609375,-5.2846360206604,-4.808475971221924,6.717260837554932
1759865034862403800,6.88940380859375,-5.256368160247803,-4.819322109222412,6.7316484451293945
1759865034872474600,6.899474609375,-5.23421573638916,-4.835628986358643,6.7372145652771
1759865034882545400,6.90954541015625,-5.230048179626465,-4.8443779945373535,6.734163761138916
1759865034892585700,6.919585693359375,-5.235230445861816,-4.848133563995361,6.727431297302246
1759865034902656500,6.929656494140625,-5.2496442794799805,-4.84311580657959,6.719813346862793
1759865034932868900,6.959868896484375,-5.293271541595459,-4.806851863861084,6.7116193771362305
1759865034942909200,6.9699091796875,-5.3083696365356445,-4.790653228759766,6.711276054382324
1759865034952980000,6.97997998046875,-5.324841499328613,-4.773004055023193,6.710803985595703
1759865034963081200,6.990081298828125,-5.354571342468262,-4.743273735046387,6.7082295417785645
1759865034973152000,7.000152099609375,-5.365854263305664,-4.7344746589660645,6.705429553985596
1759865034983192300,7.0101923828125,-5.388948917388916,-4.7157745361328125,6.700081825256348
1759865034993232600,7.020232666015625,-5.397793292999268,-4.711858749389648,6.695716857910156
1759865035003334000,7.030333984375,-5.40265417098999,-4.710806369781494,6.692539215087891
1759865035033546200,7.060546142578125,-5.381978511810303,-4.740500450134277,6.688226222991943
1759865035043617000,7.070616943359375,-5.366257190704346,-4.765732288360596,6.682922840118408
1759865035053687800,7.080687744140625,-5.380500793457031,-4.779440402984619,6.66165018081665
1759865035063789300,7.090789306640625,-5.359952449798584,-4.7923455238342285,6.668937683105469
1759865035073860000,7.100860107421875,-5.331227779388428,-4.801377296447754,6.6854424476623535
1759865035094032100,7.1210322265625,-5.266576766967773,-4.812727451324463,6.728390216827393
1759865035104103000,7.13110302734375,-5.240055084228516,-4.811871528625488,6.749675273895264
1759865035114143200,7.141143310546875,-5.22392463684082,-4.803865909576416,6.767855644226074
1759865035124244500,7.151244384765625,-5.220757961273193,-4.788772106170654,6.780982971191406
1759865035134284800,7.161284912109375,-5.2310614585876465,-4.768275260925293,6.78748893737793
1759865035144386000,7.171385986328125,-5.2659687995910645,-4.725480556488037,6.790421962738037
1759865035154487600,7.181487548828125,-5.282163143157959,-4.7120466232299805,6.787177562713623
1759865035164588800,7.1915888671875,-5.3345842361450195,-4.6576666831970215,6.783708572387695
1759865035174659600,7.20165966796875,-5.355585098266602,-4.640707492828369,6.778785705566406
1759865035184700000,7.211699951171875,-5.395665645599365,-4.603951930999756,6.772060871124268
1759865035194740200,7.221740234375,-5.433822154998779,-4.568726062774658,6.76540470123291
1759865035204811000,7.23181103515625,-5.467525959014893,-4.535420894622803,6.760659217834473
1759865035214881800,7.2418818359375,-5.4954938888549805,-4.507330417633057,6.756770610809326
1759865035224952600,7.25195263671875,-5.516915321350098,-4.485187530517578,6.754047870635986
1759865035265205200,7.292205322265625,-5.568060874938965,-4.433743476867676,6.746037483215332
1759865035285346800,7.312346923828125,-5.559239387512207,-4.44109582901001,6.748475074768066
1759865035295387100,7.32238720703125,-5.552453994750977,-4.4486613273620605,6.749078750610352
1759865035305458000,7.3324580078125,-5.5484466552734375,-4.455348014831543,6.747966766357422
1759865035315559200,7.34255908203125,-5.548083305358887,-4.461112976074219,6.744455814361572
1759865035325630000,7.3526298828125,-5.550650119781494,-4.465185165405273,6.7396464347839355
1759865035355811800,7.382811767578125,-5.547610759735107,-4.491833686828613,6.724420070648193
1759865035365913300,7.392913330078125,-5.534877777099609,-4.509549617767334,6.723060607910156
1759865035375953400,7.402953369140625,-5.515334606170654,-4.531143665313721,6.724597930908203
1759865035386055000,7.413054931640625,-5.485656261444092,-4.557422161102295,6.731111526489258
1759865035396125700,7.423125732421875,-5.462995529174805,-4.576087951660156,6.736876964569092
1759865035406196500,7.433196533203125,-5.440775394439697,-4.59271240234375,6.7435383796691895
1759865035416267300,7.443267333984375,-5.418217658996582,-4.606604099273682,6.752224445343018
1759865035426338000,7.453338134765625,-5.395658016204834,-4.616492748260498,6.7635273933410645
1759865035436378400,7.46337841796875,-5.37231969833374,-4.62408971786499,6.776900768280029
1759865035446479600,7.473479736328125,-5.348626613616943,-4.629017353057861,6.792260646820068
1759865035486762800,7.5137626953125,-5.223950386047363,-4.653692245483398,6.871966361999512
1759865035496864300,7.5238642578125,-5.189394950866699,-4.660869121551514,6.893250942230225
1759865035506965500,7.533965576171875,-5.159412384033203,-4.663074016571045,6.914233207702637
1759865035517005800,7.544005859375,-5.13316535949707,-4.660249710083008,6.935637950897217
1759865035527015400,7.554015380859375,-5.111238479614258,-4.6528143882751465,6.956792831420898
1759865035537086500,7.56408642578125,-5.094110012054443,-4.640432834625244,6.977593898773193
1759865035547157200,7.5741572265625,-5.08232307434082,-4.62273645401001,6.997907638549805
1759865035567298800,7.594298828125,-5.059815406799316,-4.592047214508057,7.034331321716309
1759865035577369600,7.60436962890625,-5.044374942779541,-4.587224960327148,7.048549175262451
1759865035587440400,7.6144404296875,-5.027158260345459,-4.58916711807251,7.059576511383057
1759865035597511200,7.62451123046875,-5.009888172149658,-4.597518444061279,7.066418647766113
1759865035607582000,7.63458203125,-4.995087623596191,-4.6088337898254395,7.069522380828857
1759865035617683200,7.64468310546875,-4.9807281494140625,-4.626358509063721,7.068206787109375
1759865035627754000,7.65475390625,-4.965129852294922,-4.652629852294922,7.061933517456055
1759865035637824800,7.66482470703125,-4.9527387619018555,-4.687041282653809,7.0478692054748535
1759865035668067800,7.69506787109375,-4.849940776824951,-4.816417217254639,7.032113552093506
1759865035678138600,7.705138671875,-4.822287559509277,-4.856436252593994,7.023601531982422
1759865035688209400,7.71520947265625,-4.803300380706787,-4.8913092613220215,7.01240348815918
1759865035698249700,7.725249755859375,-4.793124198913574,-4.919858455657959,6.99938440322876
1759865035718360800,7.74536083984375,-4.796289920806885,-4.956869602203369,6.971045017242432
1759865035728431600,7.755431640625,-4.803613185882568,-4.9800920486450195,6.949413776397705
1759865035738502400,7.76550244140625,-4.814050674438477,-4.982091903686523,6.940754413604736
1759865035758674400,7.78567431640625,-4.837393760681152,-4.9992241859436035,6.912146091461182
1759865035768745200,7.7957451171875,-4.849712371826172,-5.004316329956055,6.89981746673584
1759865035798988300,7.82598828125,-4.904754161834717,-5.0005574226379395,6.86354398727417
1759865035809059000,7.83605908203125,-4.9356184005737305,-4.990106582641602,6.8490095138549805
1759865035819129900,7.8461298828125,-4.973210334777832,-4.974350452423096,6.833259582519531
1759865035829200600,7.85620068359375,-5.01422119140625,-4.955906391143799,6.816671371459961
1759865035839271400,7.866271484375,-5.056385517120361,-4.936100482940674,6.799875259399414
1759865035849342200,7.87634228515625,-5.116456985473633,-4.907225608825684,6.7757978439331055
1759865035879554600,7.906554443359375,-5.190362930297852,-4.870466709136963,6.746044158935547
1759865035889625300,7.916625244140625,-5.207962512969971,-4.860959053039551,6.739333152770996
1759865035899696000,7.926696044921875,-5.218722343444824,-4.853768825531006,6.736188888549805
1759865035909736400,7.936736328125,-5.222957611083984,-4.848650932312012,6.736598014831543
1759865035919807200,7.94680712890625,-5.223443984985352,-4.8443098068237305,6.7393388748168945
1759865035929878000,7.9568779296875,-5.219759464263916,-4.839278221130371,6.745805740356445
1759865035939948800,7.96694873046875,-5.216102123260498,-4.835777282714844,6.751143932342529
1759865035949989000,7.976989013671875,-5.211232662200928,-4.829204082489014,6.75960111618042
1759865035980262700,8.0072626953125,-5.197473526000977,-4.776597023010254,6.807407855987549
1759865035990272300,8.017272216796876,-5.1982293128967285,-4.758798599243164,6.8192830085754395
1759865036000373800,8.027373779296875,-5.203025817871094,-4.7406535148620605,6.828261375427246
1759865036010475000,8.03747509765625,-5.2096638679504395,-4.720768451690674,6.836968898773193
1759865036020576300,8.047576171875,-5.21876859664917,-4.696317672729492,6.846857070922852
1759865036030586000,8.057586181640625,-5.229097366333008,-4.669695854187012,6.857176780700684
1759865036040657000,8.067656982421875,-5.238297462463379,-4.642387866973877,6.868685245513916
1759865036050727700,8.077727783203125,-5.2466535568237305,-4.61735725402832,6.879177093505859
1759865036080940000,8.10793994140625,-5.257284164428711,-4.563424587249756,6.906991481781006
1759865036091010800,8.1180107421875,-5.2581987380981445,-4.5501861572265625,6.9150238037109375
1759865036101112300,8.1281123046875,-5.256412982940674,-4.540238857269287,6.922913551330566
1759865036111152400,8.13815234375,-5.251799583435059,-4.532171726226807,6.931697845458984
1759865036121223400,8.148223388671875,-5.246121883392334,-4.523290634155273,6.941791534423828
1759865036131294200,8.158294189453125,-5.239151477813721,-4.514633655548096,6.952682018280029
1759865036141334300,8.168334228515626,-5.2307562828063965,-4.506870746612549,6.9640302658081055
1759865036151374600,8.17837451171875,-5.216008186340332,-4.5038628578186035,6.977025032043457
1759865036161476000,8.18847607421875,-5.196770191192627,-4.504384994506836,6.991031169891357
1759865036191688400,8.2186884765625,-5.154287338256836,-4.497496604919434,7.026825904846191
1759865036201759200,8.22875927734375,-5.171521186828613,-4.476038932800293,7.027860164642334
1759865036211830000,8.238830078125,-5.19143009185791,-4.449389934539795,7.030105113983154
1759865036221870300,8.248870361328125,-5.183933734893799,-4.4413838386535645,7.04069185256958
1759865036231941000,8.258941162109375,-5.178088188171387,-4.430230617523193,7.0520124435424805
1759865036242012000,8.269011962890625,-5.181484222412109,-4.415482521057129,7.058762550354004
1759865036252082700,8.279082763671875,-5.193588733673096,-4.4045562744140625,7.056694030761719
1759865036272224300,8.299224365234375,-5.247000694274902,-4.404982089996338,7.016800403594971
1759865036292335400,8.31933544921875,-5.269599437713623,-4.431046962738037,6.983380317687988
1759865036312507400,8.33950732421875,-5.28609561920166,-4.465191841125488,6.949077606201172
1759865036322578200,8.349578125,-5.2997612953186035,-4.47984504699707,6.929207801818848
1759865036332618500,8.359618408203126,-5.323265552520752,-4.472792625427246,6.915733814239502
1759865036342658800,8.369658935546875,-5.352330684661865,-4.4607930183410645,6.90103816986084
1759865036352729600,8.3797294921875,-5.3869171142578125,-4.443373680114746,6.885341644287109
1759865036362800400,8.38980029296875,-5.424007892608643,-4.4217329025268555,6.870142459869385
1759865036382842000,8.409842041015626,-5.498533248901367,-4.375594615936279,6.840376377105713
1759865036392913000,8.419912841796876,-5.53415584564209,-4.351152420043945,6.827227592468262
1759865036403014100,8.43001416015625,-5.563315391540527,-4.32993221282959,6.817010402679443
1759865036413085000,8.4400849609375,-5.585744380950928,-4.313651084899902,6.808984756469727
1759865036423155700,8.45015576171875,-5.6011176109313965,-4.302358627319336,6.803498268127441
1759865036433226500,8.4602265625,-5.610413074493408,-4.296139717102051,6.799767017364502
1759865036443297300,8.47029736328125,-5.615217685699463,-4.293993949890137,6.797157287597656
1759865036453368000,8.4803681640625,-5.617015838623047,-4.294558525085449,6.795316219329834
1759865036463438800,8.49043896484375,-5.6163554191589355,-4.296765327453613,6.794466018676758
1759865036483611100,8.510611083984376,-5.609613418579102,-4.304238796234131,6.795304298400879
1759865036493712400,8.52071240234375,-5.604455471038818,-4.308952331542969,6.796573162078857
1759865036503783200,8.530783203125,-5.596101760864258,-4.315664291381836,6.799198627471924
1759865036513854000,8.54085400390625,-5.581942081451416,-4.325492858886719,6.804588794708252
1759865036523924700,8.5509248046875,-5.557907581329346,-4.339128017425537,6.81557559967041
1759865036534026200,8.561026123046876,-5.540576934814453,-4.350090503692627,6.822691440582275
1759865036544127500,8.57112744140625,-5.520407199859619,-4.363302707672119,6.83060359954834
1759865036554198300,8.5811982421875,-5.492868423461914,-4.3786540031433105,6.842967987060547
1759865036564299500,8.591299560546876,-5.457979679107666,-4.395517826080322,6.860052108764648
1759865036594542600,8.62154248046875,-5.318782329559326,-4.4553117752075195,6.930452823638916
1759865036614684200,8.64168408203125,-5.217659950256348,-4.495241641998291,6.981351852416992
1759865036624755000,8.6517548828125,-5.176383972167969,-4.507507801055908,7.00413179397583
1759865036634825700,8.66182568359375,-5.152734279632568,-4.506969451904297,7.0218915939331055
1759865036644896500,8.671896484375,-5.142691612243652,-4.492578029632568,7.038455486297607
1759865036654967300,8.68196728515625,-5.132537364959717,-4.4736104011535645,7.057922840118408
1759865036665038000,8.6920380859375,-5.116296291351318,-4.457356929779053,7.079963207244873
1759865036685179600,8.7121796875,-5.08311653137207,-4.422367572784424,7.125658988952637
1759865036695281000,8.722281005859376,-5.073184013366699,-4.406627655029297,7.1424665451049805
1759865036705352000,8.73235205078125,-5.066689968109131,-4.3929853439331055,7.1554694175720215
1759865036715422700,8.742422607421876,-5.065493583679199,-4.382603168487549,7.162677764892578
1759865036725493500,8.752493408203126,-5.065005779266357,-4.371893882751465,7.169565677642822
1759865036735594800,8.7625947265625,-5.069863319396973,-4.364767551422119,7.170474529266357
1759865036745635000,8.772635009765626,-5.074985027313232,-4.360793590545654,7.169266223907471
1759865036755675400,8.78267529296875,-5.076555252075195,-4.358703136444092,7.169429779052734
1759865036765776600,8.792776611328126,-5.0733642578125,-4.358911037445068,7.171558380126953
1759865036775847400,8.802847412109376,-5.066012859344482,-4.3615007400512695,7.175179958343506
1759865036795928000,8.822927978515626,-5.0556559562683105,-4.3691558837890625,7.177826404571533
1759865036806029300,8.833029296875,-5.0649943351745605,-4.369323253631592,7.171141624450684
1759865036816100000,8.84310009765625,-5.076750755310059,-4.36681604385376,7.164350986480713
1759865036826201300,8.853201416015626,-5.0886969566345215,-4.363719463348389,7.1577582359313965
1759865036836272000,8.863272216796876,-5.10793399810791,-4.354959487915039,7.149385929107666
1759865036846373600,8.87337353515625,-5.137303352355957,-4.339159965515137,7.137938499450684
1759865036856475000,8.883474853515626,-5.171473979949951,-4.320572853088379,7.1245293617248535
1759865036866545700,8.893545654296876,-5.205969333648682,-4.302485942840576,7.11033821105957
1759865036876616400,8.903616455078126,-5.236315727233887,-4.287743091583252,7.09694766998291
1759865036886687200,8.913687255859376,-5.2624969482421875,-4.276641845703125,7.084266662597656
1759865036906828800,8.933828857421876,-5.309800624847412,-4.25983190536499,7.059054851531982
1759865036916899600,8.943899658203126,-5.334953784942627,-4.251835823059082,7.044898986816406
1759865036927001000,8.9540009765625,-5.362934589385986,-4.243149280548096,7.028870105743408
1759865036937071900,8.96407177734375,-5.392989158630371,-4.234075546264648,7.011324405670166
1759865036947142700,8.974142578125,-5.422848701477051,-4.226058483123779,6.993105411529541
1759865036957244000,8.984243896484376,-5.450237274169922,-4.22234582901001,6.974032878875732
1759865036967314700,8.994314697265626,-5.472982406616211,-4.224599361419678,6.954829692840576
1759865036977416000,9.004416015625,-5.489418983459473,-4.232475280761719,6.937062740325928
1759865036997527000,9.024527099609376,-5.504022598266602,-4.256766319274902,6.910578727722168
1759865037007628500,9.034628662109375,-5.502748012542725,-4.270103931427002,6.903359889984131
1759865037017699300,9.04469921875,-5.497358798980713,-4.282033443450928,6.900262355804443
1759865037027770000,9.05477001953125,-5.488739490509033,-4.294635772705078,6.8992919921875
1759865037037841000,9.0648408203125,-5.477662086486816,-4.306920528411865,6.9004411697387695
1759865037047911700,9.07491162109375,-5.463012218475342,-4.320906162261963,6.903308391571045
1759865037057982500,9.084982421875,-5.447001934051514,-4.334239959716797,6.907598495483398
1759865037068083700,9.095083740234376,-5.429201126098633,-4.348141193389893,6.912875175476074
1759865037078185000,9.10518505859375,-5.410119533538818,-4.361196517944336,6.919610977172852
1759865037088255700,9.115255859375,-5.389307022094727,-4.371432781219482,6.929381847381592
1759865037108336400,9.13533642578125,-5.339748382568359,-4.388334274291992,6.957013130187988
1759865037128508700,9.1555087890625,-5.2474541664123535,-4.39210319519043,7.024531841278076
1759865037138579500,9.165579345703126,-5.213088512420654,-4.398458480834961,7.0461106300354
1759865037148680700,9.1756806640625,-5.1804327964782715,-4.40709924697876,7.0647711753845215
1759865037158751500,9.18575146484375,-5.151099681854248,-4.417433261871338,7.079746723175049
1759865037168852700,9.195852783203126,-5.12224006652832,-4.430362224578857,7.0925984382629395
1759865037178923500,9.205923583984376,-5.096193790435791,-4.443124771118164,7.103369235992432
1759865037188994300,9.215994384765626,-5.075818061828613,-4.452945232391357,7.1118011474609375
1759865037209135900,9.236135986328126,-5.048103332519531,-4.460143566131592,7.127004146575928
1759865037219237400,9.2462373046875,-5.03640604019165,-4.456052303314209,7.137829780578613
1759865037229247000,9.2562470703125,-5.025180339813232,-4.451516628265381,7.148562431335449
1759865037239317800,9.26631787109375,-5.020483493804932,-4.439316272735596,7.159442901611328
1759865037249388800,9.276388916015625,-5.023289203643799,-4.4207258224487305,7.168970108032227
1759865037259459600,9.28645947265625,-5.03211784362793,-4.398301601409912,7.176569938659668
1759865037269530400,9.2965302734375,-5.045498371124268,-4.375495910644531,7.181113243103027
1759865037279631600,9.306631591796876,-5.064556121826172,-4.353326797485352,7.181170463562012
1759865037289702400,9.316702392578126,-5.0890021324157715,-4.332494735717773,7.176485061645508
1759865037309813500,9.3368134765625,-5.153083324432373,-4.321281909942627,7.137411117553711
1759865037319884300,9.34688427734375,-5.176675796508789,-4.315974712371826,7.123540878295898
1759865037329924600,9.356924560546876,-5.19785737991333,-4.308285713195801,7.112759590148926
1759865037340025900,9.36702587890625,-5.242326259613037,-4.296118259429932,7.087439060211182
1759865037350127000,9.377127197265626,-5.2752556800842285,-4.272822856903076,7.07708215713501
1759865037360167400,9.38716748046875,-5.306119918823242,-4.25048828125,7.067451477050781
1759865037370238200,9.39723828125,-5.331928730010986,-4.236741542816162,7.056271076202393
1759865037380309000,9.40730908203125,-5.346930027008057,-4.237646579742432,7.044369220733643
1759865037390379800,9.4173798828125,-5.362056732177734,-4.271305561065674,7.012470245361328
1759865037410521600,9.437521484375,-5.3115129470825195,-4.324234962463379,7.018492221832275
1759865037430693600,9.457693603515626,-5.25834846496582,-4.356614112854004,7.038472652435303
1759865037440764400,9.467764404296876,-5.249765396118164,-4.357243061065674,7.044487476348877
1759865037450835200,9.477835205078126,-5.255032539367676,-4.347594261169434,7.04652214050293
1759865037460906000,9.487906005859376,-5.27609920501709,-4.326248645782471,7.043918132781982
1759865037470915800,9.497915771484376,-5.304661273956299,-4.297306060791016,7.040180683135986
1759865037481017000,9.50801708984375,-5.3371124267578125,-4.264471054077148,7.035618782043457
1759865037491057400,9.518057373046876,-5.3704514503479,-4.229770660400391,7.031196594238281
1759865037521269800,9.548269775390626,-5.434654712677002,-4.157232761383057,7.025124549865723
1759865037531340500,9.558340576171876,-5.443490505218506,-4.146903038024902,7.024387359619141
1759865037541411300,9.568411376953126,-5.450097560882568,-4.139105796813965,7.023859977722168
1759865037551451600,9.57845166015625,-5.455033302307129,-4.133730888366699,7.023197650909424
1759865037561492000,9.588491943359376,-5.45883846282959,-4.131053447723389,7.021812915802002
1759865037571562800,9.598562744140626,-5.464980125427246,-4.1296067237854,7.01788854598999
1759865037581664000,9.6086640625,-5.465567111968994,-4.133370876312256,7.015214443206787
1759865037591704300,9.618704345703126,-5.469935417175293,-4.1345133781433105,7.011132717132568
1759865037601805600,9.6288056640625,-5.474161148071289,-4.13633394241333,7.006758689880371
1759865037642058200,9.669058349609376,-5.4652814865112305,-4.170464038848877,6.993447780609131
1759865037652159700,9.67915966796875,-5.448054313659668,-4.197329044342041,6.990817546844482
1759865037662230500,9.68923046875,-5.424631595611572,-4.225833415985107,6.991857528686523
1759865037672240000,9.699240234375,-5.408538341522217,-4.241311550140381,6.99495792388916
1759865037682311200,9.709311279296875,-5.4000420570373535,-4.248516082763672,6.997147560119629
1759865037692382000,9.7193818359375,-5.389064311981201,-4.254775047302246,7.001804828643799
1759865037702452700,9.72945263671875,-5.380228519439697,-4.258965015411377,7.006052017211914
1759865037712462300,9.73946240234375,-5.375716209411621,-4.257802963256836,7.010221004486084
1759865037752715000,9.779715087890626,-5.388031005859375,-4.225742816925049,7.020157337188721
1759865037762755300,9.78975537109375,-5.396812438964844,-4.211083889007568,7.02222204208374
1759865037772826000,9.799826171875,-5.407505512237549,-4.1910858154296875,7.025960445404053
1759865037782897000,9.80989697265625,-5.4098219871521,-4.186075210571289,7.027160167694092
1759865037792937200,9.819937255859376,-5.416426181793213,-4.17800760269165,7.02687406539917
1759865037813109500,9.840109619140625,-5.438460350036621,-4.168872356414795,7.01527214050293
1759865037823149600,9.850149658203126,-5.453069686889648,-4.173393249511719,7.001230716705322
1759865037843321900,9.87032177734375,-5.477410793304443,-4.2094855308532715,6.960504531860352
1759865037863463400,9.89046337890625,-5.483767032623291,-4.268771171569824,6.919268608093262
1759865037873534200,9.9005341796875,-5.470949172973633,-4.3214311599731445,6.896692276000977
1759865037883605000,9.91060498046875,-5.472670078277588,-4.3348894119262695,6.886871337890625
1759865037893675800,9.92067578125,-5.470272541046143,-4.362159729003906,6.87154483795166
1759865037903777000,9.930777099609376,-5.4664225578308105,-4.388184070587158,6.858023166656494
1759865037913847800,9.940847900390626,-5.4585394859313965,-4.422546863555908,6.842206954956055
1759865037923857700,9.950857666015626,-5.456033229827881,-4.453131675720215,6.824349403381348
1759865037933959000,9.960958984375,-5.46169900894165,-4.477352619171143,6.803938865661621
1759865037964110300,9.9911103515625,-5.5427751541137695,-4.493337154388428,6.727402687072754
1759865037974211600,10.001211669921876,-5.558679580688477,-4.4904279708862305,6.716216087341309
1759865037984282400,10.011282470703126,-5.585361480712891,-4.489542484283447,6.694634914398193
1759865037994353400,10.021353515625,-5.620847702026367,-4.491182327270508,6.663768291473389
1759865038004424200,10.031424072265626,-5.632427215576172,-4.491769790649414,6.653580665588379
1759865038014525400,10.041525390625,-5.654905319213867,-4.489108562469482,6.636294364929199
1759865038024596200,10.05159619140625,-5.681259632110596,-4.4788618087768555,6.620685577392578
1759865038034636500,10.061636474609376,-5.733214855194092,-4.452781677246094,6.5934343338012695
1759865038064849000,10.091848876953126,-5.823951721191406,-4.406732559204102,6.544667720794678
1759865038074950100,10.1019501953125,-5.871344089508057,-4.390214920043945,6.513350486755371
1759865038085021000,10.11202099609375,-5.884792804718018,-4.38584041595459,6.504155158996582
1759865038095091700,10.122091796875,-5.920431613922119,-4.382821083068848,6.473773002624512
1759865038105162500,10.13216259765625,-5.94149923324585,-4.384498596191406,6.453308582305908
1759865038115264000,10.142263916015626,-5.962399959564209,-4.388496398925781,6.431276798248291
1759865038125334800,10.152334716796876,-5.982929229736328,-4.393261432647705,6.408918857574463
1759865038135375000,10.162375,-6.002676486968994,-4.396758079528809,6.388017177581787
1759865038175719200,10.20271923828125,-6.061147689819336,-4.3558244705200195,6.360792636871338
1759865038185790000,10.2127900390625,-6.076780796051025,-4.35050106048584,6.349512577056885
1759865038195860700,10.22286083984375,-6.097342491149902,-4.344913959503174,6.333608627319336
1759865038205962200,10.232962158203126,-6.099100589752197,-4.3403496742248535,6.335038185119629
1759865038216002600,10.24300244140625,-6.112504959106445,-4.337738990783691,6.3239006996154785
1759865038226073300,10.2530732421875,-6.112335205078125,-4.337085723876953,6.324514865875244
1759865038236113400,10.263113525390626,-6.10914421081543,-4.335922718048096,6.328390598297119
1759865038266295300,10.29329541015625,-6.070469856262207,-4.360881805419922,6.34843111038208
1759865038306548200,10.33354833984375,-5.9916276931762695,-4.39024019241333,6.402858734130859
1759865038326689800,10.353689697265626,-5.950418949127197,-4.383139133453369,6.446005821228027
1759865038336760600,10.363760498046876,-5.926440238952637,-4.363354682922363,6.481423377990723
1759865038346831400,10.373831298828126,-5.919069766998291,-4.357876300811768,6.4918365478515625
1759865038366942500,10.3939423828125,-5.889664649963379,-4.350991249084473,6.523122787475586
1759865038377013200,10.40401318359375,-5.890693187713623,-4.353794097900391,6.520326137542725
1759865038387084000,10.414083984375,-5.886570453643799,-4.353712558746338,6.524101257324219
1759865038397124400,10.424124267578126,-5.872259140014648,-4.350714683532715,6.538980007171631
1759865038407225600,10.4342255859375,-5.85941743850708,-4.338356018066406,6.558682441711426
1759865038417326800,10.444326904296876,-5.869225978851318,-4.312605381011963,6.566888809204102
1759865038427397600,10.454397705078126,-5.882822513580322,-4.280503749847412,6.5757222175598145
1759865038437499100,10.4644990234375,-5.895509719848633,-4.254848957061768,6.5810065269470215
1759865038447539200,10.474539306640626,-5.897003173828125,-4.243808269500732,6.586797714233398
1759865038487792000,10.514792236328125,-5.8943586349487305,-4.288821697235107,6.5599493980407715
1759865038507933700,10.53493359375,-5.927262306213379,-4.264075756072998,6.546422004699707
1759865038518004500,10.54500439453125,-5.965043544769287,-4.23972749710083,6.527889251708984
1759865038528044800,10.555044921875,-6.016558647155762,-4.2047247886657715,6.503208637237549
1759865038538146000,10.56514599609375,-6.108191967010498,-4.126094341278076,6.4680562019348145
1759865038548186400,10.575186279296876,-6.138113021850586,-4.105429172515869,6.45286226272583
1759865038568297500,10.59529736328125,-6.255930423736572,-3.993238687515259,6.409974575042725
1759865038598509800,10.625509765625,-6.385247707366943,-3.866042137145996,6.360244274139404
1759865038608580600,10.63558056640625,-6.4291863441467285,-3.825589179992676,6.340412616729736
1759865038618651400,10.6456513671875,-6.441404342651367,-3.8156466484069824,6.3339972496032715
1759865038628752600,10.655752685546876,-6.462713241577148,-3.801081418991089,6.321040630340576
1759865038638823400,10.665823486328126,-6.47990608215332,-3.792902946472168,6.308338165283203
1759865038648894200,10.675894287109376,-6.49342679977417,-3.790113925933838,6.296100616455078
1759865038658965000,10.685965087890626,-6.503272533416748,-3.7928731441497803,6.2842631340026855
1759865038689147000,10.71614697265625,-6.501528739929199,-3.83554744720459,6.2601189613342285
1759865038699217700,10.7262177734375,-6.495360374450684,-3.855196475982666,6.254452228546143
1759865038709319200,10.736319091796876,-6.476396083831787,-3.8914570808410645,6.251662731170654
1759865038719390000,10.746389892578126,-6.465683937072754,-3.909066677093506,6.251762866973877
1759865038729491200,10.7564912109375,-6.4452104568481445,-3.938812494277954,6.25423002243042
1759865038739562000,10.76656201171875,-6.4202470779418945,-3.971137762069702,6.259466171264648
1759865038749632800,10.7766328125,-6.390163421630859,-4.009156703948975,6.266006946563721
1759865038759703600,10.78670361328125,-6.358903884887695,-4.047155857086182,6.273383140563965
1759865038789946600,10.816946533203126,-6.258584499359131,-4.159688949584961,6.300595283508301
1759865038800017400,10.827017333984376,-6.233870506286621,-4.18019437789917,6.311517715454102
1759865038810118700,10.83711865234375,-6.197815895080566,-4.202139854431152,6.332417964935303
1759865038820220000,10.847219970703126,-6.1834635734558105,-4.210894584655762,6.340631008148193
1759865038830290700,10.857290771484376,-6.155438423156738,-4.224452495574951,6.35884952545166
1759865038840331000,10.8673310546875,-6.126496315002441,-4.238183498382568,6.377638816833496
1759865038850401800,10.87740185546875,-6.099139213562012,-4.248700141906738,6.396830081939697
1759865038860472600,10.88747265625,-6.076083660125732,-4.251628875732422,6.4167962074279785
1759865038890685200,10.917685302734375,-6.0405049324035645,-4.2285261154174805,6.465466499328613
1759865038910826800,10.93782666015625,-6.019532680511475,-4.1923089027404785,6.508469104766846
1759865038931029200,10.958029296875,-5.994948863983154,-4.17498254776001,6.542211055755615
1759865038941100000,10.96810009765625,-5.978189468383789,-4.174636363983154,6.557750225067139
1759865038951201500,10.978201416015626,-5.975639820098877,-4.1741943359375,6.5603532791137695
1759865038961272300,10.988272216796876,-5.961114406585693,-4.1876959800720215,6.5649614334106445
1759865038981414000,11.008413818359376,-5.920566082000732,-4.223223686218262,6.578880310058594
1759865038991515100,11.01851513671875,-5.896726131439209,-4.242406368255615,6.587944030761719
1759865039001586000,11.0285859375,-5.87166166305542,-4.26559591293335,6.595351219177246
1759865039011656700,11.03865673828125,-5.850649833679199,-4.290799617767334,6.597680568695068
1759865039021697000,11.048697021484376,-5.841223239898682,-4.3123297691345215,6.591991424560547
1759865039031798300,11.05879833984375,-5.859646320343018,-4.308477878570557,6.5781450271606445
1759865039041838600,11.068838623046876,-5.864574432373047,-4.319324493408203,6.56662654876709
1759865039051939800,11.07893994140625,-5.8746256828308105,-4.327548027038574,6.5522141456604
1759865039062011000,11.089010986328125,-5.895303249359131,-4.326521873474121,6.534297943115234
1759865039082183000,11.109182861328126,-5.965956211090088,-4.299648284912109,6.487744331359863
1759865039102355000,11.12935498046875,-6.047152042388916,-4.267322063446045,6.433690547943115
1759865039132536800,11.159536865234376,-6.1320366859436035,-4.262417793273926,6.356125831604004
1759865039142577200,11.1695771484375,-6.148240566253662,-4.2715301513671875,6.334318161010742
1759865039152617500,11.179617431640626,-6.161048412322998,-4.282238006591797,6.314608573913574
1759865039172759000,11.199759033203126,-6.1812214851379395,-4.305699825286865,6.278844833374023
1759865039202941000,11.22994091796875,-6.177504062652588,-4.375326633453369,6.234210014343262
1759865039213011700,11.24001171875,-6.163637161254883,-4.407961368560791,6.224939823150635
1759865039223113000,11.250113037109376,-6.141399383544922,-4.445865154266357,6.219961166381836
1759865039233153300,11.2601533203125,-6.113269805908203,-4.486961364746094,6.21816349029541
1759865039243224000,11.27022412109375,-6.08314323425293,-4.526050567626953,6.219375133514404
1759865039253294800,11.280294921875,-6.054756164550781,-4.559067249298096,6.222958087921143
1759865039263396400,11.290396240234376,-6.030283451080322,-4.584290981292725,6.228191375732422
1759865039293578200,11.320578125,-5.971529483795166,-4.634310722351074,6.247753620147705
1759865039303649000,11.33064892578125,-5.945380210876465,-4.6556243896484375,6.256836414337158
1759865039313658600,11.34065869140625,-5.913763523101807,-4.679985523223877,6.268613815307617
1759865039323760000,11.350760009765626,-5.882476329803467,-4.701716423034668,6.2817792892456055
1759865039333831000,11.360830810546876,-5.853072643280029,-4.71793270111084,6.2970685958862305
1759865039343871000,11.37087109375,-5.825210094451904,-4.72617769241333,6.316693305969238
1759865039353942000,11.38094189453125,-5.804309844970703,-4.728117942810059,6.334452152252197
1759865039363982000,11.390982177734376,-5.794703006744385,-4.722996711730957,6.347055435180664
1759865039384124000,11.4111240234375,-5.790265083312988,-4.701196670532227,6.3672614097595215
1759865039394164000,11.4211640625,-5.7959489822387695,-4.68496036529541,6.374053001403809
1759865039404265500,11.431265380859376,-5.80951452255249,-4.661713600158691,6.378745079040527
1759865039414336300,11.441336181640626,-5.8311448097229,-4.630370140075684,6.381835460662842
1759865039424407000,11.451406982421876,-5.859095096588135,-4.594968318939209,6.3818230628967285
1759865039434447400,11.461447265625,-5.890395164489746,-4.5595197677612305,6.378438949584961
1759865039444548600,11.471548583984376,-5.921952247619629,-4.525518417358398,6.373425006866455
1759865039454589000,11.4815888671875,-5.951187610626221,-4.492315769195557,6.36968469619751
1759865039464659700,11.49165966796875,-5.977255344390869,-4.459697723388672,6.368193626403809
1759865039474761000,11.501760986328126,-6.000773906707764,-4.427793502807617,6.368338108062744
1759865039515074800,11.54207470703125,-6.0873870849609375,-4.320674896240234,6.359711647033691
1759865039525145600,11.5521455078125,-6.10540246963501,-4.301197528839111,6.35563850402832
1759865039535216400,11.56221630859375,-6.117717266082764,-4.28491735458374,6.354798316955566
1759865039545287200,11.572287109375,-6.1221089363098145,-4.273660182952881,6.358147621154785
1759865039555388400,11.582388427734376,-6.1167073249816895,-4.2737627029418945,6.363273620605469
1759865039565428700,11.5924287109375,-6.101438999176025,-4.283120632171631,6.371633052825928
1759865039575499500,11.60249951171875,-6.07837438583374,-4.306426525115967,6.377966403961182
1759865039585570300,11.6125703125,-6.055453300476074,-4.3483781814575195,6.371306419372559
1759865039615782700,11.64278271484375,-6.007069110870361,-4.48785400390625,6.320182800292969
1759865039625823000,11.652822998046876,-6.001944065093994,-4.495321273803711,6.3197407722473145
1759865039635893800,11.662893798828126,-6.006631851196289,-4.492766380310059,6.317105770111084
1759865039656035300,11.683035400390626,-6.044449329376221,-4.472197532653809,6.295596122741699
1759865039666075600,11.69307568359375,-6.068914890289307,-4.461312294006348,6.279761791229248
1759865039676146400,11.703146484375,-6.094701766967773,-4.453536033630371,6.2602763175964355
1759865039686217200,11.71321728515625,-6.119126319885254,-4.446428298950195,6.241473197937012
1759865039696288000,11.7232880859375,-6.141454219818115,-4.440210819244385,6.223943710327148
1759865039706358800,11.73335888671875,-6.163507461547852,-4.4329400062561035,6.20730447769165
1759865039726531000,11.753531005859376,-6.205860137939453,-4.418729305267334,6.175152778625488
1759865039736571400,11.7635712890625,-6.22499942779541,-4.411991119384766,6.160693168640137
1759865039746672600,11.773672607421876,-6.247466564178467,-4.405999183654785,6.142210006713867
1759865039756713000,11.783712890625,-6.25388240814209,-4.405023097991943,6.136378765106201
1759865039766783700,11.79378369140625,-6.27064847946167,-4.403735160827637,6.120171070098877
1759865039776854500,11.8038544921875,-6.275289058685303,-4.404300689697266,6.1150031089782715
1759865039786925300,11.81392529296875,-6.2847208976745605,-4.408336639404297,6.1023993492126465
1759865039796965600,11.823965576171876,-6.285998821258545,-4.4145307540893555,6.096601963043213
1759865039847319600,11.874319580078126,-6.183832168579102,-4.503730773925781,6.135716438293457
1759865039857390300,11.884390380859376,-6.165103435516357,-4.515477180480957,6.145926475524902
1759865039867461000,11.894461181640626,-6.113903045654297,-4.541558742523193,6.177767753601074
1759865039877562600,11.904562744140625,-6.082883834838867,-4.552453517913818,6.200331687927246
1759865039887633400,11.91463330078125,-6.064582824707031,-4.5582075119018555,6.214015960693359
1759865039897704200,11.9247041015625,-6.020590782165527,-4.566806316375732,6.2503743171691895
1759865039917845800,11.944845703125,-5.966348171234131,-4.581580638885498,6.291439533233643
1759865039948027600,11.975027587890626,-5.936398029327393,-4.573299884796143,6.325703144073486
1759865039958098400,11.985098388671876,-5.952062129974365,-4.548584461212158,6.3288044929504395
1759865039968169200,11.995169189453126,-5.967698574066162,-4.5275115966796875,6.329190254211426
1759865039978240000,12.005239990234376,-5.985282897949219,-4.50544548034668,6.328329086303711
1759865039988280300,12.0152802734375,-6.002288818359375,-4.484864711761475,6.32684326171875
1759865039998320600,12.025320556640626,-6.009304046630859,-4.476602554321289,6.326030254364014
1759865040008391400,12.035391357421876,-6.024003028869629,-4.460118770599365,6.323695182800293
1759865040038573300,12.0655732421875,-6.043611526489258,-4.439608573913574,6.319416522979736
1759865040048644000,12.07564404296875,-6.042214393615723,-4.4394073486328125,6.320897102355957
1759865040058745300,12.085745361328126,-6.041877746582031,-4.438942909240723,6.321544647216797
1759865040068816100,12.095816162109376,-6.042307376861572,-4.434540748596191,6.324221611022949
1759865040078887000,12.105886962890626,-6.038033485412598,-4.43408203125,6.328622341156006
1759865040088988400,12.115988525390625,-6.0241804122924805,-4.444885730743408,6.334245204925537
1759865040099059200,12.12605908203125,-6.000055313110352,-4.468504428863525,6.340521335601807
1759865040109130000,12.1361298828125,-5.967618942260742,-4.501728534698486,6.347626209259033
1759865040149443600,12.176443603515626,-5.834545612335205,-4.6724534034729,6.347963809967041
1759865040159544800,12.186544921875,-5.801023960113525,-4.705526828765869,6.35425329208374
1759865040169646300,12.196646240234376,-5.7773118019104,-4.7296953201293945,6.35791015625
1759865040179717000,12.206717041015626,-5.762741565704346,-4.749609470367432,6.356288909912109
1759865040189788000,12.216787841796876,-5.75015926361084,-4.765378475189209,6.3558831214904785
1759865040199858700,12.226858642578126,-5.7539496421813965,-4.773349761962891,6.346465110778809
1759865040209899000,12.23689892578125,-5.757527828216553,-4.779539108276367,6.338554382324219
1759865040250182100,12.27718212890625,-5.797869682312012,-4.786947727203369,6.296047210693359
1759865040260253000,12.2872529296875,-5.810591697692871,-4.78732442855835,6.284021377563477
1759865040270354200,12.297354248046876,-5.825902462005615,-4.791038513183594,6.266995429992676
1759865040280394500,12.30739453125,-5.832149505615234,-4.790987491607666,6.261216163635254
1759865040290495700,12.317495849609376,-5.8442301750183105,-4.790596008300781,6.250246524810791
1759865040300566800,12.32756689453125,-5.859462261199951,-4.788157939910889,6.2378435134887695
1759865040310637600,12.337637451171876,-5.87784481048584,-4.780188083648682,6.226646900177002
1759865040330748700,12.357748779296875,-5.9263916015625,-4.747813701629639,6.2053656578063965
1759865040340819500,12.3678193359375,-5.949300765991211,-4.731440544128418,6.195943355560303
1759865040350890200,12.37789013671875,-5.96608829498291,-4.720553874969482,6.18809700012207
1759865040360961000,12.3879609375,-5.977138519287109,-4.714977741241455,6.1816816329956055
1759865040371031800,12.39803173828125,-5.984400749206543,-4.713501930236816,6.175778388977051
1759865040381102600,12.4081025390625,-5.9874162673950195,-4.715459823608398,6.171361923217773
1759865040391173400,12.41817333984375,-5.985315322875977,-4.720949649810791,6.169200897216797
1759865040401244200,12.428244140625,-5.9739484786987305,-4.736820697784424,6.168055057525635
1759865040411315000,12.43831494140625,-5.962737083435059,-4.749935626983643,6.168816089630127
1759865040451537200,12.478537109375,-5.907139301300049,-4.799386501312256,6.184013843536377
1759865040491820300,12.5188203125,-5.8356709480285645,-4.804004669189453,6.247948169708252
1759865040501860600,12.528860595703126,-5.820933818817139,-4.798798561096191,6.265676021575928
1759865040511961900,12.5389619140625,-5.807585716247559,-4.795201778411865,6.280794143676758
1759865040542235400,12.5692353515625,-5.759477615356445,-4.786557197570801,6.331483840942383
1759865040552306200,12.57930615234375,-5.741876125335693,-4.782233715057373,6.350707054138184
1759865040562346500,12.589346435546876,-5.724545001983643,-4.776764869689941,6.3704423904418945
1759865040572447700,12.59944775390625,-5.7075066566467285,-4.770094871520996,6.390690803527832
1759865040582518500,12.6095185546875,-5.6905388832092285,-4.762746334075928,6.41127347946167
1759865040592589300,12.61958935546875,-5.668173789978027,-4.7505574226379395,6.440062522888184
1759865040602690600,12.629690673828126,-5.654746055603027,-4.740711212158203,6.459096908569336
1759865040612761600,12.63976171875,-5.643073558807373,-4.728780269622803,6.478021144866943
1759865040622832400,12.649832275390626,-5.632875442504883,-4.71429967880249,6.4974236488342285
1759865040642943500,12.669943603515625,-5.614029884338379,-4.681270599365234,6.537491798400879
1759865040673155800,12.70015576171875,-5.596889019012451,-4.634927272796631,6.5850372314453125
1759865040683226600,12.7102265625,-5.593863010406494,-4.614457130432129,6.601962566375732
1759865040693297400,12.72029736328125,-5.597641944885254,-4.591246604919434,6.614927768707275
1759865040703398700,12.730398681640626,-5.606559753417969,-4.5696587562561035,6.622317314147949
1759865040713439000,12.74043896484375,-5.629561901092529,-4.541792392730713,6.621974945068359
1759865040723509800,12.750509765625,-5.666082859039307,-4.5118513107299805,6.6112871170043945
1759865040743651300,12.7706513671875,-5.695948600769043,-4.488874435424805,6.60125732421875
1759865040753691600,12.780691650390626,-5.691126346588135,-4.485910892486572,6.607426166534424
1759865040763762400,12.790762451171876,-5.703113555908203,-4.502449035644531,6.585808277130127
1759865040773833200,12.800833251953126,-5.7034196853637695,-4.5294718742370605,6.566983222961426
1759865040783873500,12.81087353515625,-5.703282833099365,-4.556988716125488,6.548041343688965
1759865040793913900,12.820913818359376,-5.716137886047363,-4.586881160736084,6.51588249206543
1759865040804015000,12.83101513671875,-5.74012565612793,-4.593793869018555,6.4898681640625
1759865040814055400,12.841055419921876,-5.776453495025635,-4.580577373504639,6.46693754196167
1759865040824095700,12.851095703125,-5.821717739105225,-4.560989856719971,6.4401373863220215
1759865040834136000,12.861135986328126,-5.846115589141846,-4.552274703979492,6.42418098449707
1759865040844237300,12.8712373046875,-5.899747848510742,-4.514827728271484,6.401538848876953
1759865040854277600,12.881277587890626,-5.975189208984375,-4.465201377868652,6.366278171539307
1759865040864348400,12.891348388671876,-6.017282962799072,-4.441084384918213,6.343461513519287
1759865040874358300,12.901358154296876,-6.052807807922363,-4.422572612762451,6.322559356689453
1759865040884459500,12.91145947265625,-6.0813703536987305,-4.408527851104736,6.304934501647949
1759865040894499800,12.921499755859376,-6.104099750518799,-4.397914886474609,6.290370464324951
1759865040904601000,12.93160107421875,-6.121920108795166,-4.389187812805176,6.2791337966918945
1759865040914671900,12.941671875,-6.132915019989014,-4.383792877197266,6.272171497344971
1759865040924712200,12.951712158203126,-6.13417387008667,-4.38532829284668,6.269865989685059
1759865040934783000,12.961782958984376,-6.124166965484619,-4.395313739776611,6.272654056549072
1759865040975035600,13.00203564453125,-6.011499881744385,-4.4715576171875,6.327516555786133
1759865040985106400,13.0121064453125,-5.978423118591309,-4.4866557121276855,6.348134517669678
1759865040995146800,13.022146728515626,-5.947786808013916,-4.497546672821045,6.369171142578125
1759865041005217500,13.032217529296876,-5.917726039886475,-4.505625247955322,6.391424179077148
1759865041015288300,13.042288330078126,-5.887683391571045,-4.511343479156494,6.415087699890137
1759865041025359000,13.052359130859376,-5.855905055999756,-4.519895553588867,6.438116073608398
1759865041035399400,13.0623994140625,-5.823358058929443,-4.529477596282959,6.460865497589111
1759865041045500700,13.072500732421876,-5.787903308868408,-4.541824817657471,6.484011650085449
1759865041065642200,13.092642333984376,-5.712874889373779,-4.57948112487793,6.523942470550537
1759865041075713000,13.102713134765626,-5.6784515380859375,-4.590901851654053,6.545935153961182
1759865041085814500,13.112814453125,-5.644547462463379,-4.602557182312012,6.567034721374512
1759865041095885300,13.12288525390625,-5.610402584075928,-4.616575241088867,6.586428642272949
1759865041105986600,13.132986572265626,-5.574918746948242,-4.63415002822876,6.604193687438965
1759865041116057300,13.143057373046876,-5.539700984954834,-4.6556830406188965,6.618666648864746
1759865041126097700,13.15309765625,-5.508666515350342,-4.67855167388916,6.628432273864746
1759865041136138000,13.163137939453126,-5.487241268157959,-4.696771621704102,6.63331937789917
1759865041146178300,13.17317822265625,-5.474908351898193,-4.70688009262085,6.6363444328308105
1759865041156249000,13.1832490234375,-5.468803405761719,-4.713379383087158,6.636765003204346
1759865041186431000,13.213430908203126,-5.463646411895752,-4.721877098083496,6.634971618652344
1759865041196471300,13.22347119140625,-5.47419548034668,-4.714792728424072,6.631311893463135
1759865041206603000,13.23360302734375,-5.489045143127441,-4.702296257019043,6.627911567687988
1759865041216643300,13.243643310546876,-5.508904457092285,-4.68529748916626,6.623471736907959
1759865041226744600,13.25374462890625,-5.537683963775635,-4.665875434875488,6.613174915313721
1759865041236815400,13.2638154296875,-5.573629856109619,-4.647120952606201,6.596161365509033
1759865041246916900,13.273916748046876,-5.611584186553955,-4.632242679595947,6.5744099617004395
1759865041256987600,13.283987548828126,-5.6445488929748535,-4.621642112731934,6.553617477416992
1759865041297301200,13.32430126953125,-5.710984706878662,-4.608918190002441,6.504841327667236
1759865041307372000,13.3343720703125,-5.712250232696533,-4.613993167877197,6.500131130218506
1759865041317473300,13.344473388671876,-5.716089248657227,-4.619963645935059,6.492506980895996
1759865041327544300,13.35454443359375,-5.724846839904785,-4.6268134117126465,6.479902744293213
1759865041337584400,13.36458447265625,-5.738940238952637,-4.630897045135498,6.464500427246094
1759865041347624700,13.374624755859376,-5.755338668823242,-4.632528305053711,6.448728561401367
1759865041357695500,13.384695556640626,-5.767329692840576,-4.635564804077148,6.435828685760498
1759865041367797000,13.394796875,-5.775305271148682,-4.642146110534668,6.423921585083008
1759865041397979000,13.424978759765626,-5.781657695770264,-4.674822807312012,6.394444465637207
1759865041408049700,13.435049560546876,-5.78373908996582,-4.685544013977051,6.384707450866699
1759865041418151000,13.44515087890625,-5.792182922363281,-4.690591812133789,6.3733320236206055
1759865041428221700,13.4552216796875,-5.809501647949219,-4.687292575836182,6.359983444213867
1759865041438323000,13.465322998046876,-5.8339738845825195,-4.677886486053467,6.3444905281066895
1759865041448424400,13.475424560546875,-5.861161708831787,-4.6664533615112305,6.3278279304504395
1759865041458495200,13.4854951171875,-5.886998176574707,-4.6566901206970215,6.3110127449035645
1759865041468596500,13.495596435546876,-5.909099578857422,-4.650680065155029,6.2947678565979
1759865041488738000,13.515738037109376,-5.934476852416992,-4.654750347137451,6.267831802368164
1759865041498808800,13.525808837890626,-5.938541412353516,-4.664323329925537,6.256854057312012
1759865041508910000,13.53591015625,-5.938258647918701,-4.6769795417785645,6.247669219970703
1759865041518980900,13.54598095703125,-5.934601783752441,-4.6912522315979,6.240437030792236
1759865041529051600,13.5560517578125,-5.928791522979736,-4.706136703491211,6.234750270843506
1759865041539153200,13.566153076171876,-5.9223809242248535,-4.720495223999023,6.229982852935791
1759865041549224000,13.576223876953126,-5.915102005004883,-4.733646392822266,6.226920127868652
1759865041559294700,13.586294677734376,-5.906765460968018,-4.744467735290527,6.226602077484131
1759865041589507000,13.616507080078126,-5.878087043762207,-4.749570846557617,6.249804973602295
1759865041599577900,13.626577880859376,-5.864413738250732,-4.724961280822754,6.281227111816406
1759865041609679000,13.63667919921875,-5.852624416351318,-4.702819347381592,6.308777809143066
1759865041619750000,13.64675,-5.851941108703613,-4.679062843322754,6.327047824859619
1759865041629821000,13.656821044921875,-5.85591459274292,-4.652143955230713,6.343205451965332
1759865041639891700,13.6668916015625,-5.860682487487793,-4.621779918670654,6.3609747886657715
1759865041649931800,13.676931884765626,-5.863836765289307,-4.58964729309082,6.381298542022705
1759865041660033300,13.687033203125,-5.862051486968994,-4.557335376739502,6.4060468673706055
1759865041700286000,13.727285888671876,-5.8219709396362305,-4.447470664978027,6.518824577331543
1759865041710356700,13.737356689453126,-5.798519134521484,-4.429619312286377,6.551795482635498
1759865041730498300,13.757498291015626,-5.7439284324646,-4.402801513671875,6.617626190185547
1759865041740538600,13.76753857421875,-5.713840007781982,-4.3964152336120605,6.64785623550415
1759865041750579000,13.777578857421876,-5.679837703704834,-4.395961284637451,6.67722749710083
1759865041760619300,13.787619384765625,-5.641714572906494,-4.400201797485352,6.706690788269043
1759865041770690000,13.79768994140625,-5.600554943084717,-4.407233715057373,6.736503601074219
1759865041790801200,13.81780126953125,-5.520727634429932,-4.422070026397705,6.792443752288818
1759865041800902400,13.82790234375,-5.490777015686035,-4.425517559051514,6.814439296722412
1759865041810973200,13.83797314453125,-5.473333835601807,-4.4267191886901855,6.8276753425598145
1759865041821044000,13.8480439453125,-5.4859161376953125,-4.421303749084473,6.821081161499023
1759865041831145200,13.858145263671876,-5.480458736419678,-4.424952030181885,6.823104381561279
1759865041841185500,13.868185546875,-5.458294868469238,-4.437916278839111,6.8324456214904785
1759865041851286800,13.878286865234376,-5.473563194274902,-4.453972816467285,6.809746742248535
1759865041861357600,13.888357666015626,-5.460658550262451,-4.471275329589844,6.808769226074219
1759865041901610200,13.9286103515625,-5.374600887298584,-4.546135902404785,6.827645778656006
1759865041911711700,13.938711669921876,-5.367292881011963,-4.558648109436035,6.825051784515381
1759865041921782500,13.948782470703126,-5.376589775085449,-4.558133125305176,6.818075656890869
1759865041931853300,13.958853271484376,-5.403162479400635,-4.542802333831787,6.8072896003723145
1759865041941954600,13.96895458984375,-5.443739891052246,-4.513055324554443,6.794734001159668
1759865041951995000,13.978994873046876,-5.493683815002441,-4.469579219818115,6.783265113830566
1759865041962035200,13.98903515625,-5.547783374786377,-4.418510437011719,6.772685527801514
1759865041972106000,13.99910595703125,-5.605612754821777,-4.363656997680664,6.760623455047607
1759865042002287900,14.029287841796876,-5.7802653312683105,-4.184973239898682,6.726434707641602
1759865042012389000,14.03938916015625,-5.838150501251221,-4.119543552398682,6.716827869415283
1759865042022460000,14.0494599609375,-5.892918109893799,-4.0548319816589355,6.708372592926025
1759865042032530700,14.05953076171875,-5.942061424255371,-3.996164083480835,6.700222969055176
1759865042052672300,14.07967236328125,-6.017924785614014,-3.9067959785461426,6.685199737548828
1759865042062743300,14.089743408203125,-6.044116020202637,-3.8812124729156494,6.676471710205078
1759865042092955600,14.11995556640625,-6.069732189178467,-3.8783957958221436,6.6548357009887695
1759865042102996000,14.129995849609376,-6.062224864959717,-3.89621901512146,6.6512651443481445
1759865042113097200,14.14009716796875,-6.049009799957275,-3.921415328979492,6.64848518371582
1759865042123198500,14.150198486328126,-6.029800891876221,-3.9525909423828125,6.647475719451904
1759865042133269200,14.160269287109376,-6.004250526428223,-3.9890329837799072,6.648833274841309
1759865042143340000,14.170340087890626,-5.988762378692627,-4.009385108947754,6.650559902191162
1759865042153410800,14.180410888671876,-5.956536293029785,-4.049374103546143,6.655271053314209
1759865042163451100,14.190451171875,-5.907779216766357,-4.108784198760986,6.662314414978027
1759865042173522000,14.20052197265625,-5.888958930969238,-4.13005256652832,6.665822982788086
1759865042223937000,14.25093701171875,-5.685802459716797,-4.271244525909424,6.752668380737305
1759865042244139800,14.271139892578125,-5.560975551605225,-4.343052864074707,6.810568809509277
1759865042254241000,14.281240966796876,-5.4941182136535645,-4.3827223777771,6.839357852935791
1759865042264281300,14.29128125,-5.434874534606934,-4.416518211364746,6.864905834197998
1759865042274352000,14.30135205078125,-5.390395641326904,-4.438192844390869,6.885962009429932
1759865042284453400,14.311453369140626,-5.363739490509033,-4.445572376251221,6.901999473571777
1759865042314727000,14.341726806640626,-5.360004425048828,-4.409878253936768,6.927750110626221
1759865042324767000,14.35176708984375,-5.365129470825195,-4.396683692932129,6.932168483734131
1759865042334868500,14.361868408203126,-5.367504596710205,-4.388368129730225,6.935600280761719
1759865042344939300,14.371939208984376,-5.370135307312012,-4.383578300476074,6.936592102050781
1759865042354979600,14.3819794921875,-5.379753589630127,-4.377082347869873,6.933238506317139
1759865042365080800,14.392080810546876,-5.396414756774902,-4.3691229820251465,6.925306797027588
1759865042375151600,14.402151611328126,-5.4143218994140625,-4.365670680999756,6.913496017456055
1759865042385252900,14.4122529296875,-5.429267883300781,-4.3697943687438965,6.899155139923096
1759865042445616600,14.47261669921875,-5.365543842315674,-4.606742858886719,6.794061660766602
1759865042455687400,14.4826875,-5.36628532409668,-4.624141693115234,6.781644344329834
1759865042465727700,14.492727783203126,-5.349085807800293,-4.671865940093994,6.762497425079346
1759865042485838800,14.5128388671875,-5.356199741363525,-4.73069953918457,6.715806007385254
1759865042495940000,14.522940185546876,-5.358458518981934,-4.751425266265869,6.699350833892822
1759865042505980400,14.53298046875,-5.355466842651367,-4.77548360824585,6.684615612030029
1759865042536223500,14.563223388671876,-5.3683648109436035,-4.794175624847412,6.660849094390869
1759865042546324700,14.57332470703125,-5.380286693572998,-4.783162593841553,6.659149169921875
1759865042566466300,14.59346630859375,-5.414436340332031,-4.742772102355957,6.660360336303711
1759865042576567600,14.603567626953126,-5.450362682342529,-4.698940753936768,6.662125587463379
1759865042586638300,14.613638427734376,-5.477718353271484,-4.668463230133057,6.661115646362305
1759865042596678700,14.6236787109375,-5.491884231567383,-4.65310001373291,6.660200119018555
1759865042606780200,14.6337802734375,-5.540650367736816,-4.607975959777832,6.65117883682251
1759865042637023000,14.66402294921875,-5.62198543548584,-4.542154312133789,6.628162860870361
1759865042657225500,14.6842255859375,-5.6652913093566895,-4.513923168182373,6.610550880432129
1759865042667265800,14.694265869140626,-5.683276176452637,-4.503156661987305,6.602453231811523
1759865042677306000,14.70430615234375,-5.70495080947876,-4.49308443069458,6.590607166290283
1759865042687377000,14.714376953125,-5.710397720336914,-4.49059534072876,6.587586402893066
1759865042697447700,14.72444775390625,-5.729026794433594,-4.47957181930542,6.578910827636719
1759865042707518500,14.7345185546875,-5.740046501159668,-4.471752166748047,6.574627876281738
1759865042727690800,14.754690673828126,-5.75688362121582,-4.456008434295654,6.570594310760498
1759865042747862800,14.77486279296875,-5.751668453216553,-4.445182800292969,6.582480430603027
1759865042757903000,14.784903076171876,-5.741342544555664,-4.43613862991333,6.597579479217529
1759865042767974000,14.794973876953126,-5.714942932128906,-4.424198150634766,6.628446102142334
1759865042778014200,14.80501416015625,-5.7009663581848145,-4.415554046630859,6.646223068237305
1759865042788085000,14.8150849609375,-5.68994140625,-4.40927267074585,6.659824848175049
1759865042798094800,14.8250947265625,-5.679471969604492,-4.395198345184326,6.678040027618408
1759865042808196000,14.835196044921876,-5.673052787780762,-4.384224891662598,6.690700531005859
1759865042818267000,14.845266845703126,-5.669740676879883,-4.37108850479126,6.702093601226807
1759865042858580500,14.88558056640625,-5.693930149078369,-4.282388210296631,6.7387495040893555
1759865042868651300,14.8956513671875,-5.698233127593994,-4.26969575881958,6.7431640625
1759865042888793000,14.91579296875,-5.710743427276611,-4.223499298095703,6.761645317077637
1759865042898863900,14.92586376953125,-5.7109694480896,-4.2046003341674805,6.773223876953125
1759865042908965000,14.935965087890626,-5.709842681884766,-4.1871018409729,6.785002708435059
1759865042919005400,14.94600537109375,-5.712060451507568,-4.169605255126953,6.793905735015869
1759865042949248300,14.976248291015626,-5.738588333129883,-4.131380081176758,6.794905662536621
1759865042959219200,14.98621923828125,-5.748536586761475,-4.129574298858643,6.787585258483887
1759865042969290000,14.9962900390625,-5.7564311027526855,-4.129925727844238,6.780681610107422
1759865042979391200,15.00639111328125,-5.758315563201904,-4.127930641174316,6.780296802520752
1759865042989462000,15.0164619140625,-5.763187885284424,-4.128495693206787,6.775807857513428
1759865043009634000,15.036634033203125,-5.774770259857178,-4.150725841522217,6.752325534820557
1759865043019735600,15.046735595703124,-5.779942989349365,-4.185244560241699,6.726541042327881
1759865043060049200,15.087049072265625,-5.719968318939209,-4.306845188140869,6.701006889343262
1759865043070150400,15.097150390625,-5.716386795043945,-4.322923183441162,6.693704128265381
1759865043080252000,15.107251953125,-5.715773105621338,-4.336472511291504,6.685460090637207
1759865043090322700,15.11732275390625,-5.718576908111572,-4.347841739654541,6.675671577453613
1759865043100393500,15.1273935546875,-5.724836826324463,-4.356339931488037,6.66475248336792
1759865043110433800,15.137433837890624,-5.730991840362549,-4.3628692626953125,6.65518856048584
1759865043130575400,15.157575439453124,-5.737595558166504,-4.373661518096924,6.642401695251465
1759865043160848600,15.1878486328125,-5.76538610458374,-4.35423469543457,6.63109016418457
1759865043170919400,15.19791943359375,-5.7746076583862305,-4.345504283905029,6.628796100616455
1759865043181021000,15.20802099609375,-5.78196907043457,-4.337699890136719,6.627486228942871
1759865043191091700,15.218091796875,-5.7885589599609375,-4.330140590667725,6.626680374145508
1759865043201132000,15.228132080078124,-5.795838356018066,-4.32166862487793,6.625847339630127
1759865043211202800,15.238202880859374,-5.8042988777160645,-4.311965465545654,6.624764442443848
1759865043231344400,15.258344482421874,-5.818622589111328,-4.294354438781738,6.623636245727539
1759865043241445600,15.268445556640625,-5.820058822631836,-4.290907859802246,6.624607563018799
1759865043261617700,15.28861767578125,-5.802303791046143,-4.300804138183594,6.633757591247559
1759865043271688700,15.298688720703124,-5.781728744506836,-4.316005229949951,6.641848564147949
1759865043281759500,15.308759521484374,-5.750958442687988,-4.341591835021973,6.651872634887695
1759865043291830300,15.318830322265624,-5.692040920257568,-4.395308494567871,6.667261600494385
1759865043301870600,15.32887060546875,-5.664570331573486,-4.423910617828369,6.671738624572754
1759865043311971800,15.338971923828124,-5.6272149085998535,-4.448007583618164,6.687306880950928
1759865043322073000,15.349072998046875,-5.610907077789307,-4.460227966308594,6.692869663238525
1759865043332143900,15.359143798828125,-5.579119682312012,-4.473458290100098,6.710590839385986
1759865043342214700,15.369214599609375,-5.5658063888549805,-4.480942726135254,6.716645240783691
1759865043372427000,15.399427001953125,-5.515422344207764,-4.4945502281188965,6.749040126800537
1759865043382497800,15.409497802734375,-5.513126373291016,-4.493307590484619,6.751745223999023
1759865043392538000,15.4195380859375,-5.524986267089844,-4.4771952629089355,6.75275182723999
1759865043402609000,15.42960888671875,-5.557122707366943,-4.444831848144531,6.7477617263793945
1759865043412679700,15.4396796875,-5.564115524291992,-4.437033176422119,6.747130870819092
1759865043432852000,15.45985205078125,-5.572512149810791,-4.419857501983643,6.751472473144531
1759865043452993500,15.47999365234375,-5.570328235626221,-4.414892196655273,6.7565226554870605
1759865043483206000,15.510205810546875,-5.547157287597656,-4.453914165496826,6.749972343444824
1759865043493276700,15.520276611328125,-5.532413482666016,-4.478378772735596,6.745882511138916
1759865043513449000,15.540448974609374,-5.509225368499756,-4.520429611206055,6.736806392669678
1759865043533621000,15.56062109375,-5.4686174392700195,-4.590091705322266,6.722777366638184
1759865043543691800,15.57069189453125,-5.44374942779541,-4.6429972648620605,6.706611156463623
1759865043553732000,15.580732177734374,-5.4595770835876465,-4.647033214569092,6.690927505493164
1759865043563863800,15.59086376953125,-5.460563659667969,-4.667963981628418,6.675535202026367
1759865043583944400,15.6109443359375,-5.472365379333496,-4.680439472198486,6.657106876373291
1759865043604116500,15.631116455078125,-5.5078959465026855,-4.658857822418213,6.642932415008545
1759865043614187300,15.641187255859375,-5.5309858322143555,-4.641423225402832,6.635948657989502
1759865043624288800,15.651288818359374,-5.556838035583496,-4.62235164642334,6.627655506134033
1759865043634359600,15.661359619140624,-5.586188316345215,-4.601064205169678,6.617786407470703
1759865043644399900,15.67139990234375,-5.594429969787598,-4.594201564788818,6.615591526031494
1759865043654470700,15.681470703125,-5.622518539428711,-4.572494029998779,6.606812477111816
1759865043664541400,15.69154150390625,-5.632951736450195,-4.5641865730285645,6.603672027587891
1759865043674612200,15.7016123046875,-5.653730869293213,-4.54847526550293,6.5967512130737305
1759865043704855000,15.73185498046875,-5.755025863647461,-4.469742298126221,6.562889575958252
1759865043714925800,15.74192578125,-5.770419597625732,-4.459140300750732,6.556578636169434
1759865043725027300,15.75202734375,-5.799710273742676,-4.4430084228515625,6.541670799255371
1759865043735098000,15.76209814453125,-5.826132774353027,-4.431111812591553,6.526240825653076
1759865043745199400,15.772199462890624,-5.855896472930908,-4.422212600708008,6.5056071281433105
1759865043755239700,15.78223974609375,-5.862211227416992,-4.422986030578613,6.499392032623291
1759865043765249300,15.792249267578125,-5.872470378875732,-4.4282331466674805,6.486543655395508
1759865043795462000,15.8224619140625,-5.859476566314697,-4.44403600692749,6.487484455108643
1759865043805532700,15.83253271484375,-5.852875232696533,-4.44944429397583,6.489738464355469
1759865043815603500,15.842603515625,-5.847339153289795,-4.4503583908081055,6.494097709655762
1759865043825643800,15.852643798828124,-5.841475009918213,-4.449122428894043,6.500222682952881
1759865043835714600,15.862714599609374,-5.835911273956299,-4.447969436645508,6.506002426147461
1759865043845785300,15.872785400390624,-5.8290696144104,-4.4371256828308105,6.519528865814209
1759865043855856000,15.882856201171874,-5.8192243576049805,-4.423141956329346,6.537803649902344
1759865043865957400,15.892957275390625,-5.804422855377197,-4.400907516479492,6.5659027099609375
1759865043906179600,15.9331796875,-5.768046855926514,-4.347012996673584,6.633513450622559
1759865043916158700,15.94315869140625,-5.757735729217529,-4.334320545196533,6.6507568359375
1759865043926260200,15.95326025390625,-5.750555515289307,-4.304515361785889,6.676278114318848
1759865043936331000,15.9633310546875,-5.74655294418335,-4.293020725250244,6.687112808227539
1759865043946401800,15.97340185546875,-5.7419281005859375,-4.270678997039795,6.705367565155029
1759865043956411400,15.983411376953125,-5.741969108581543,-4.230470180511475,6.730769634246826
1759865043966513000,15.993512939453124,-5.740354537963867,-4.216648578643799,6.740818023681641
1759865043976614100,16.0036142578125,-5.742096424102783,-4.1819539070129395,6.760918140411377
1759865044016927700,16.043927734375,-5.746219635009766,-4.044421672821045,6.840612888336182
1759865044026998500,16.05399853515625,-5.7436957359313965,-4.023561000823975,6.855023384094238
1759865044057180400,16.084180419921875,-5.711898326873779,-3.9873313903808594,6.902597904205322
1759865044067282000,16.094281982421876,-5.688790321350098,-3.9808833599090576,6.925360679626465
1759865044077322200,16.104322265625,-5.675161838531494,-3.985294818878174,6.934001922607422
1759865044097494300,16.124494384765626,-5.654935836791992,-4.0150346755981445,6.933366298675537
1759865044107595500,16.134595458984375,-5.636593818664551,-4.053353786468506,6.926001071929932
1759865044117605400,16.14460546875,-5.600876331329346,-4.146883964538574,6.899559497833252
1759865044127706600,16.15470654296875,-5.58200740814209,-4.1762285232543945,6.897153377532959
1759865044137777400,16.16477734375,-5.5739054679870605,-4.1957688331604,6.891843795776367
1759865044147848200,16.17484814453125,-5.576443672180176,-4.208709716796875,6.88189172744751
1759865044157888500,16.184888427734375,-5.578667640686035,-4.219666004180908,6.873373508453369
1759865044167989800,16.19498974609375,-5.587667465209961,-4.232399940490723,6.858218669891357
1759865044178030000,16.205030029296875,-5.609023571014404,-4.241957664489746,6.834845066070557
1759865044238485500,16.265485595703126,-5.834700584411621,-4.213748455047607,6.661153316497803
1759865044258596600,16.2855966796875,-5.893833637237549,-4.233868598937988,6.596022129058838
1759865044268637000,16.295636962890626,-5.894273281097412,-4.248687267303467,6.586090087890625
1759865044278707700,16.305707763671876,-5.892003059387207,-4.278463363647461,6.568824291229248
1759865044318990800,16.345990966796876,-5.749271869659424,-4.478224277496338,6.562145709991455
1759865044329092000,16.356092041015625,-5.685391902923584,-4.536853790283203,6.577512741088867
1759865044339163000,16.366162841796875,-5.621309757232666,-4.591516971588135,6.594640254974365
1759865044349203200,16.376203125,-5.558190822601318,-4.640099048614502,6.614106178283691
1759865044359304400,16.386304443359375,-5.494361400604248,-4.6837568283081055,6.636625289916992
1759865044369375200,16.396375244140625,-5.409847259521484,-4.739846229553223,6.666168212890625
1759865044379446300,16.4064462890625,-5.38145112991333,-4.759295463562012,6.675285816192627
1759865044389517000,16.41651708984375,-5.332395553588867,-4.788628578186035,6.693652629852295
1759865044419668200,16.446668212890625,-5.171470642089844,-4.871323585510254,6.759920597076416
1759865044439810000,16.46681005859375,-5.060626983642578,-4.930540561676025,6.800754070281982
1759865044449880800,16.476880859375,-5.00320291519165,-4.964173316955566,6.818750858306885
1759865044459921000,16.4869208984375,-4.943348407745361,-4.999642372131348,6.836465835571289
1759865044470022400,16.4970224609375,-4.881665229797363,-5.037050247192383,6.853311061859131
1759865044480062700,16.507062744140626,-4.820762634277344,-5.072542190551758,6.870223522186279
1759865044490133500,16.517133544921876,-4.76124382019043,-5.105209827423096,6.887509346008301
1759865044500204300,16.527204345703126,-4.7031145095825195,-5.134977340698242,6.90529727935791
1759865044530416600,16.557416748046876,-4.546572685241699,-5.207721710205078,6.955482482910156
1759865044540487400,16.5674873046875,-4.502718448638916,-5.233264446258545,6.964829921722412
1759865044550527700,16.57752783203125,-4.469985008239746,-5.257500171661377,6.967661380767822
1759865044560598500,16.5875986328125,-4.4461259841918945,-5.2815985679626465,6.964702129364014
1759865044570638800,16.597638916015626,-4.4265289306640625,-5.306426525115967,6.958308696746826
1759865044580709600,16.607709716796876,-4.4081854820251465,-5.334633827209473,6.948376655578613
1759865044590780400,16.617780517578126,-4.3885416984558105,-5.366878986358643,6.935971736907959
1759865044600881700,16.627881591796875,-4.3708815574646,-5.40106201171875,6.920571327209473
1759865044621023200,16.648023193359375,-4.337637424468994,-5.464260578155518,6.891815185546875
1759865044631094000,16.658093994140625,-4.333996772766113,-5.487349510192871,6.875743865966797
1759865044641164800,16.668164794921875,-4.338395595550537,-5.504464149475098,6.8592705726623535
1759865044651235600,16.678235595703125,-4.352092742919922,-5.514503479003906,6.842511177062988
1759865044661306600,16.688306640625,-4.370996475219727,-5.5198869705200195,6.8261003494262695
1759865044671377400,16.69837744140625,-4.408503532409668,-5.510602951049805,6.809463977813721
1759865044681448200,16.7084482421875,-4.439330577850342,-5.502766132354736,6.795755863189697
1759865044691488500,16.718488525390626,-4.471983909606934,-5.490838527679443,6.783984661102295
1759865044701589800,16.72858984375,-4.507916450500488,-5.474384307861328,6.773492813110352
1759865044711691000,16.73869091796875,-4.535736560821533,-5.463073253631592,6.764046669006348
1759865044731863000,16.758863037109375,-4.592504501342773,-5.426621437072754,6.7550787925720215
1759865044741964500,16.768964599609376,-4.617569923400879,-5.404493808746338,6.755730628967285
1759865044772207400,16.799207275390625,-4.6594319343566895,-5.345875263214111,6.773605823516846
1759865044782308600,16.80930859375,-4.664803981781006,-5.328250408172607,6.783788681030273
1759865044792410000,16.81941015625,-4.668464183807373,-5.310495376586914,6.795182704925537
1759865044812521200,16.839521240234376,-4.673022747039795,-5.277359485626221,6.817823886871338
1759865044832662800,16.859662841796876,-4.67194128036499,-5.251492023468018,6.838507652282715
1759865044842733600,16.869733642578126,-4.66607141494751,-5.244497776031494,6.847877502441406
1759865044852804400,16.879804443359376,-4.656888484954834,-5.2419304847717285,6.8560895919799805
1759865044862844700,16.8898447265625,-4.645884037017822,-5.243521690368652,6.86233377456665
1759865044872946000,16.89994580078125,-4.632647514343262,-5.24922513961792,6.8669233322143555
1759865044883047200,16.910047119140625,-4.618037700653076,-5.258340358734131,6.869785785675049
1759865044893118000,16.920117919921875,-4.60634183883667,-5.265544891357422,6.872124671936035
1759865044903188700,16.930188720703125,-4.591738700866699,-5.27212381362915,6.876852035522461
1759865044913290200,16.940290283203126,-4.58071231842041,-5.278992652893066,6.878930568695068
1759865044943502600,16.970502685546876,-4.544478416442871,-5.303971767425537,6.883749008178711
1759865044953573400,16.980573486328126,-4.539254188537598,-5.302646636962891,6.888216972351074
1759865044963674600,16.990674560546875,-4.532896518707275,-5.30055046081543,6.894012451171875
1759865044973776000,17.00077587890625,-4.522824287414551,-5.29495906829834,6.904916286468506
1759865044983847000,17.010846923828126,-4.5127973556518555,-5.293648719787598,6.912475109100342
1759865044993887000,17.020886962890625,-4.502689361572266,-5.299046993255615,6.914933204650879
1759865045003988500,17.030988525390626,-4.480313777923584,-5.308243274688721,6.922407627105713
1759865045024160500,17.051160400390625,-4.403189659118652,-5.344958782196045,6.943609237670898
1759865045044302000,17.071302001953125,-4.340640068054199,-5.359703540802002,6.9715704917907715
1759865045054372900,17.081372802734375,-4.349289417266846,-5.36181640625,6.964552879333496
1759865045064474000,17.09147412109375,-4.365890979766846,-5.353769779205322,6.960353374481201
1759865045074545200,17.101545166015626,-4.410324573516846,-5.333716869354248,6.947726726531982
1759865045084585200,17.111585205078125,-4.452538013458252,-5.295534610748291,6.950008869171143
1759865045094625500,17.12162548828125,-4.4894514083862305,-5.26220703125,6.951575756072998
1759865045104696300,17.1316962890625,-4.529881477355957,-5.245600700378418,6.937883377075195
1759865045114767000,17.14176708984375,-4.560833930969238,-5.213265895843506,6.941977500915527
1759865045134847700,17.16184765625,-4.6250319480896,-5.183750629425049,6.921577453613281
1759865045155050500,17.182050537109376,-4.74434757232666,-5.342641353607178,6.716975688934326
1759865045165121300,17.192121337890626,-4.774559497833252,-5.392574787139893,6.6553826332092285
1759865045175222500,17.202222412109375,-4.893670082092285,-5.4128031730651855,6.551639556884766
1759865045185293300,17.212293212890625,-4.926833152770996,-5.39699649810791,6.539808750152588
1759865045195364000,17.222364013671875,-5.007483005523682,-5.32185173034668,6.540138244628906
1759865045205435000,17.232434814453125,-5.044795036315918,-5.301380634307861,6.528078556060791
1759865045245748700,17.272748779296876,-5.1755242347717285,-5.215147495269775,6.495119571685791
1759865045255788800,17.282788818359375,-5.215031147003174,-5.209087371826172,6.468327522277832
1759865045265859800,17.29285986328125,-5.2556257247924805,-5.1493940353393555,6.483252048492432
1759865045286001400,17.31300146484375,-5.298286437988281,-5.069565296173096,6.51137638092041
1759865045296072200,17.323072265625,-5.34088659286499,-4.990752220153809,6.537411689758301
1759865045306173400,17.33317333984375,-5.330719947814941,-4.92200231552124,6.597555160522461
1759865045346487300,17.3734873046875,-5.3090033531188965,-4.736135959625244,6.749363422393799
1759865045356558000,17.38355810546875,-5.29437255859375,-4.722766399383545,6.770195484161377
1759865045366628900,17.39362890625,-5.280568599700928,-4.725122928619385,6.779322624206543
1759865045376669000,17.4036689453125,-5.271846294403076,-4.722084045410156,6.7882232666015625
1759865045386709200,17.413709228515625,-5.262080669403076,-4.717068672180176,6.7992777824401855
1759865045396780000,17.423780029296875,-5.194590091705322,-4.59114408493042,6.935994625091553
1759865045406850800,17.433850830078125,-5.1702704429626465,-4.583742618560791,6.959022045135498
1759865045416891100,17.44389111328125,-5.139697551727295,-4.604527473449707,6.967941761016846
1759865045457235500,17.4842353515625,-5.041656494140625,-4.535192966461182,7.08407735824585
1759865045467306200,17.49430615234375,-4.992739200592041,-4.507790565490723,7.136018753051758
1759865045477346600,17.5043466796875,-4.948721408843994,-4.518429279327393,7.159914970397949
1759865045487417300,17.514417236328125,-4.910182476043701,-4.539081573486328,7.173370838165283
1759865045497488100,17.524488037109375,-4.861663341522217,-4.522536754608154,7.216738700866699
1759865045507559000,17.534558837890625,-4.83485221862793,-4.529182434082031,7.230566501617432
1759865045517599200,17.54459912109375,-4.8037309646606445,-4.570866107940674,7.225080490112305
1759865045557912800,17.584912841796875,-4.667540550231934,-4.646501064300537,7.265981197357178
1759865045567983900,17.59498388671875,-4.6335859298706055,-4.677833080291748,7.267609596252441
1759865045578085000,17.605085205078126,-4.607421398162842,-4.701051235198975,7.269262790679932
1759865045588156000,17.615156005859376,-4.5894575119018555,-4.710245132446289,7.274672508239746
1759865045598196200,17.6251962890625,-4.574317455291748,-4.7094926834106445,7.284688472747803
1759865045608297500,17.63529736328125,-4.551989555358887,-4.696914196014404,7.306763172149658
1759865045618368300,17.6453681640625,-4.544013500213623,-4.6921916007995605,7.314760208129883
1759865045628439000,17.65543896484375,-4.530588626861572,-4.681186676025391,7.330120086669922
1759865045658621000,17.685620849609375,-4.460295677185059,-4.66099214553833,7.385885238647461
1759865045668691700,17.695691650390625,-4.426954746246338,-4.6581339836120605,7.407717227935791
1759865045678762500,17.705762451171875,-4.380710601806641,-4.659858703613281,7.43407678604126
1759865045688833300,17.715833251953125,-4.332120418548584,-4.65445613861084,7.4658684730529785
1759865045698904000,17.725904052734375,-4.309112071990967,-4.615006923675537,7.503573894500732
1759865045708944400,17.7359443359375,-4.282057285308838,-4.575963973999023,7.542873859405518
1759865045719015200,17.74601513671875,-4.2419538497924805,-4.560620307922363,7.574757099151611
1759865045729116700,17.75611669921875,-4.215280532836914,-4.536801338195801,7.603895664215088
1759865045739218000,17.766218017578126,-4.172461032867432,-4.537765026092529,7.6269049644470215
1759865045749319200,17.776319091796875,-4.131967544555664,-4.554339408874512,7.639060020446777
1759865045779531500,17.806531494140625,-4.103312015533447,-4.571957111358643,7.643979549407959
1759865045789602300,17.816602294921875,-4.136786937713623,-4.5522308349609375,7.6377081871032715
1759865045799703800,17.826703857421876,-4.158029079437256,-4.541638374328613,7.632478713989258
1759865045809774600,17.836774658203126,-4.186896324157715,-4.5135931968688965,7.6333327293396
1759865045819875800,17.846875732421875,-4.206250190734863,-4.490277290344238,7.636443138122559
1759865045829946600,17.856946533203125,-4.218865871429443,-4.469869136810303,7.641456127166748
1759865045839987000,17.866987060546876,-4.222745895385742,-4.454200267791748,7.648460865020752
1759865045870229800,17.897229736328125,-4.215854167938232,-4.415237903594971,7.674805164337158
1759865045880300500,17.907300537109375,-4.209996700286865,-4.406790733337402,7.682872772216797
1759865045890371300,17.917371337890625,-4.201181888580322,-4.4027299880981445,7.690020561218262
1759865045900442400,17.9274423828125,-4.178010940551758,-4.406669616699219,7.700384140014648
1759865045910543600,17.937543701171876,-4.168782711029053,-4.408862113952637,7.704127311706543
1759865045920614400,17.947614501953126,-4.150053977966309,-4.4152750968933105,7.710565090179443
1759865045930685200,17.957685302734376,-4.130279541015625,-4.422698974609375,7.716925144195557
1759865046001211400,18.02821142578125,-4.027866363525391,-4.462040901184082,7.748347282409668
1759865046011282200,18.0382822265625,-4.020526885986328,-4.460599422454834,7.752987384796143
1759865046021353000,18.04835302734375,-4.013113021850586,-4.4583940505981445,7.758098125457764
1759865046031423700,18.058423828125,-4.004270076751709,-4.455403804779053,7.764379978179932
1759865046041494500,18.06849462890625,-4.004600524902344,-4.4513840675354,7.766514301300049
1759865046061666600,18.08866650390625,-4.020315170288086,-4.434475898742676,7.768069267272949
1759865046071767800,18.098767822265625,-4.032979488372803,-4.423095703125,7.76799201965332
1759865046081838800,18.1088388671875,-4.048290729522705,-4.4110002517700195,7.766905307769775
1759865046091940000,18.118940185546876,-4.091653823852539,-4.43123722076416,7.732587814331055
1759865046102011000,18.129010986328126,-4.0973591804504395,-4.429779052734375,7.730401515960693
1759865046112112000,18.139112060546875,-4.125260829925537,-4.434255599975586,7.71297550201416
1759865046122183000,18.149182861328125,-4.156796932220459,-4.446530818939209,7.6889424324035645
1759865046132284400,18.159284423828126,-4.163109302520752,-4.4495038986206055,7.683804512023926
1759865046142355200,18.169355224609376,-4.157754898071289,-4.471414566040039,7.673978328704834
1759865046182668800,18.209668701171875,-4.114894390106201,-4.50937032699585,7.674869537353516
1759865046192709000,18.219709228515626,-4.098531246185303,-4.519648551940918,7.677579402923584
1759865046202780000,18.22977978515625,-4.077096939086914,-4.525681972503662,7.6854329109191895
1759865046212850700,18.2398505859375,-4.052957534790039,-4.522817134857178,7.6998724937438965
1759865046222952000,18.249951904296875,-4.026156902313232,-4.515142917633057,7.718416213989258
1759865046232992300,18.2599921875,-3.9950294494628906,-4.507559299468994,7.738994598388672
1759865046243093500,18.270093505859375,-3.97204327583313,-4.499763488769531,7.755345821380615
1759865046253195000,18.280195068359376,-3.9602863788604736,-4.481992721557617,7.771635055541992
1759865046283377000,18.310376953125,-3.9679455757141113,-4.447378635406494,7.787595748901367
1759865046293447700,18.32044775390625,-3.9751837253570557,-4.42949104309082,7.794096946716309
1759865046303518500,18.3305185546875,-3.9852206707000732,-4.4175615310668945,7.795741081237793
1759865046313589200,18.34058935546875,-3.9990293979644775,-4.413479804992676,7.790980339050293
1759865046323629600,18.350629638671876,-4.014760971069336,-4.413676738739014,7.782773494720459
1759865046333700400,18.360700439453126,-4.037356853485107,-4.418851852416992,7.768133640289307
1759865046343771100,18.370771240234376,-4.066897392272949,-4.4306535720825195,7.745969772338867
1759865046353842000,18.380842041015626,-4.095910549163818,-4.440930366516113,7.724767684936523
1759865046383993300,18.410993408203126,-4.201602935791016,-4.4228315353393555,7.678247928619385
1759865046394064100,18.421064208984376,-4.239559650421143,-4.412273406982422,7.66344690322876
1759865046404104400,18.4311044921875,-4.274684429168701,-4.398782253265381,7.651679039001465
1759865046414175200,18.44117529296875,-4.307502746582031,-4.384699821472168,7.641350746154785
1759865046424246000,18.45124609375,-4.338399410247803,-4.370508670806885,7.631994724273682
