time,seconds_elapsed,z,y,x
1759865027420054500,-0.552945556640625,-0.06703764945268631,0.14844051003456116,0.06224924325942993
1759865027460276500,-0.5127236328125,0.07422025501728058,0.040701430290937424,0.20111294090747833
1759865027470347300,-0.50265283203125,0.1412578970193863,-0.05267243832349777,0.1364694982767105
1759865027480418000,-0.49258203125,0.019153613597154617,-0.2322375625371933,0.016759412363171577
1759865027490519600,-0.48248046875,0.1364694982767105,0.10773907601833344,0.0071826050989329815
1759865027500590300,-0.47240966796875,-0.028730420395731926,0.11971008777618408,0.08858546614646912
1759865027510661000,-0.4623388671875,-0.08379705995321274,0.23942017555236816,0.031124621629714966
1759865027520732000,-0.45226806640625,0,0.08379705995321274,-0.002394201699644327
1759865027530833200,-0.442166748046875,0.014365210197865963,0.17238251864910126,-0.028730420395731926
1759865027571238400,-0.40176171875,-0.06703764945268631,0.07661445438861847,0.16759411990642548
1759865027581340000,-0.39166015625,-0.016759412363171577,0.07900865375995636,0.17477671802043915
1759865027591410700,-0.38158935546875,-0.016759412363171577,0.1149216815829277,0.17238251864910126
1759865027601512000,-0.371488037109375,0,0.05267243832349777,0.18914192914962769
1759865027611613200,-0.36138671875,-0.026336219161748886,0.07661445438861847,0.13168109953403473
1759865027621684000,-0.35131591796875,0.05746084079146385,0.1173158809542656,0.14604631066322327
1759865027631754800,-0.341245361328125,-0.021547814831137657,0.2059013396501541,0.07182604819536209
1759865027641825500,-0.331174560546875,-0.019153613597154617,0.2059013396501541,-0.021547814831137657
1759865027661997800,-0.311002197265625,-0.011971008032560349,0.004788403399288654,0.043095629662275314
1759865027712351700,-0.260648193359375,-0.10055647045373917,0.7110779285430908,-0.2346317619085312
1759865027762797300,-0.21020263671875,0.4668693244457245,0.4165911078453064,0.1867477297782898
1759865027793009700,-0.179990234375,0.2968810200691223,-0.090979665517807,0.38546648621559143
1759865027823283200,-0.149716796875,0.3974374830722809,0.7829039692878723,0.06703764945268631
1759865027833323500,-0.139676513671875,0.1628057211637497,0.9074024558067322,0.033518824726343155
1759865027843394300,-0.129605712890625,-0.13168109953403473,0.6272808313369751,-0.021547814831137657
1759865027853495600,-0.11950439453125,-0.24420857429504395,0.15083470940589905,0.0454898327589035
1759865027863566300,-0.10943359375,-0.14365209639072418,0.2801215946674347,0.05027823522686958
1759865027883708000,-0.0892919921875,-0.4908113479614258,1.577778935432434,0.10534487664699554
1759865027893778700,-0.07922119140625,-0.9097966551780701,1.6519991159439087,0.021547814831137657
1759865027903819000,-0.069180908203125,-1.3431471586227417,1.3766659498214722,0.15801730751991272
1759865027913920300,-0.059079833984375,-1.6136919260025024,1.7693150043487549,0.181959331035614
1759865027924021800,-0.048978271484375,-1.5490485429763794,1.6424223184585571,0.12210428714752197
1759865027934092500,-0.038907470703125,-2.075772762298584,2.3942017555236816,-0.06464344263076782
1759865027944132900,-0.0288671875,-2.782062292098999,3.3686418533325195,-0.3280056416988373
1759865027954234000,-0.018765869140625,-3.090914487838745,3.5936968326568604,-0.7206547260284424
1759865027964305000,-0.008695068359375,-3.399766445159912,2.7916390895843506,-1.4700398445129395
1759865028004588000,0.031588134765625,-4.108449935913086,-1.5538369417190552,-3.8067808151245117
1759865028014628400,0.04162841796875,-4.716577529907227,-3.2632968425750732,-4.446032524108887
1759865028024668700,0.051668701171875,-6.2201361656188965,-5.2265424728393555,-4.824316501617432
1759865028034770000,0.06177001953125,-7.2783732414245605,-6.581660270690918,-4.666299343109131
1759865028044810200,0.071810302734375,-8.288725852966309,-7.419631004333496,-4.086902141571045
1759865028054911500,0.081911376953125,-8.501810073852539,-7.879317760467529,-3.064578056335449
1759865028064951800,0.091951904296875,-8.949525833129883,-8.159439086914062,-1.7094600200653076
1759865028115367000,0.142366943359375,-7.862558364868164,-4.400542736053467,2.942473888397217
1759865028125407200,0.1524072265625,-8.128314971923828,-5.260061264038086,3.6535518169403076
1759865028135478000,0.16247802734375,-8.121131896972656,-4.357447147369385,4.395754337310791
1759865028145518300,0.172518310546875,-7.869740962982178,-2.693476915359497,4.424484729766846
1759865028155619600,0.18261962890625,-8.544905662536621,-2.1954829692840576,3.600879430770874
1759865028165690400,0.1926904296875,-8.451532363891602,-2.978386878967285,2.719813108444214
1759865028175761200,0.20276123046875,-6.567295074462891,-4.031835556030273,2.3367409706115723
1759865028216044300,0.243044189453125,-1.5442601442337036,-5.145139217376709,0.6847416758537292
1759865028256327700,0.28332763671875,-1.7286136150360107,-2.0015525817871094,-0.8834604024887085
1759865028276408000,0.303407958984375,-1.8171991109848022,-2.5689783096313477,-0.12689268589019775
1759865028296580400,0.323580322265625,-1.278503656387329,-2.607285737991333,0.15322890877723694
1759865028346873300,0.373873291015625,-3.31118106842041,0.9840168952941895,0.12210428714752197
1759865028377116200,0.4041162109375,-2.7006595134735107,-0.6368576288223267,0.7398083209991455
1759865029717136100,1.74413623046875,-2.205059766769409,0.6775590777397156,-0.4692635238170624
1759865029736877800,1.7638779296875,0.014365210197865963,0.09576806426048279,-0.0933738648891449
1759865029746548700,1.773548828125,-0.0071826050989329815,0.038307227194309235,-0.07182604819536209
1759865029756388900,1.783388916015625,0,0.038307227194309235,-0.06703764945268631
1759865029766259700,1.793259765625,0.05506663769483566,0.035913024097681046,-0.023942016065120697
1759865029776230400,1.80323046875,0.28969839215278625,0.014365210197865963,-0.023942016065120697
1759865029786270700,1.813270751953125,0.26096799969673157,0.1149216815829277,0.08619125932455063
1759865029796341500,1.823341552734375,0.16998831927776337,0.05746084079146385,0.10295066982507706
1759865029806443000,1.833443115234375,0.05985504388809204,0.0454898327589035,0.16759411990642548
1759865029816513800,1.843513671875,-0.033518824726343155,0.06224924325942993,0.15083470940589905
1759865029826554000,1.85355419921875,-0.031124621629714966,0.002394201699644327,0.2585737705230713
1759865029836655400,1.8636552734375,0.031124621629714966,0.08619125932455063,0.2561795711517334
1759865029887009300,1.91400927734375,0.19393034279346466,-0.038307227194309235,0.30885201692581177
1759865029917252400,1.94425244140625,0.10534487664699554,-0.2849099934101105,0.30885201692581177
1759865029927353600,1.954353515625,-0.004788403399288654,-0.1628057211637497,0.31842881441116333
1759865029957596400,1.984596435546875,-0.2322375625371933,-0.043095629662275314,0.2825157940387726
1759865029987870000,2.014869873046875,-0.15083470940589905,-0.16998831927776337,0.1173158809542656
1759865029997940700,2.024940673828125,-0.14604631066322327,-0.08379705995321274,-0.038307227194309235
1759865030008042000,2.0350419921875,-0.07422025501728058,-0.19393034279346466,-0.035913024097681046
1759865030028183600,2.05518359375,-0.0933738648891449,-0.1388636976480484,0.023942016065120697
1759865030078537700,2.105537841796875,-0.031124621629714966,0.07422025501728058,0.016759412363171577
1759865030088608500,2.1156083984375,-0.08140286058187485,0.023942016065120697,0.0694318488240242
1759865030098679300,2.12567919921875,-0.1173158809542656,-0.016759412363171577,0.1388636976480484
1759865030108780500,2.135780517578125,-0.08140286058187485,-0.011971008032560349,0.1604115068912506
1759865030118851300,2.145851318359375,-0.043095629662275314,-0.1604115068912506,0.05267243832349777
1759865030128922000,2.155922119140625,-0.08379705995321274,-0.17238251864910126,0.12689268589019775
1759865030169205500,2.19620556640625,-0.07422025501728058,-0.026336219161748886,0.1412578970193863
1759865030179306800,2.206306640625,-0.12210428714752197,-0.05985504388809204,0.2561795711517334
1759865030189377500,2.21637744140625,-0.15562310814857483,-0.05027823522686958,0.2585737705230713
1759865030199448300,2.2264482421875,-0.10773907601833344,-0.043095629662275314,0.26096799969673157
1759865030209488600,2.236488525390625,-0.20111294090747833,0,0.23942017555236816
1759865030219559400,2.246559326171875,-0.10534487664699554,0.05985504388809204,0.19393034279346466
1759865030229630200,2.256630126953125,-0.1628057211637497,0.08858546614646912,0.2322375625371933
1759865030249741300,2.2767412109375,-0.19632454216480255,-0.011971008032560349,0.181959331035614
1759865030279953700,2.30695361328125,-0.14604631066322327,-0.1412578970193863,0.1412578970193863
1759865030289994000,2.316993896484375,-0.14844051003456116,-0.011971008032560349,0.16998831927776337
1759865030300064800,2.327064697265625,-0.22744916379451752,0.043095629662275314,0.23942017555236816
1759865030310105000,2.33710498046875,-0.2561795711517334,0,0.19632454216480255
1759865030320175900,2.34717578125,-0.15322890877723694,-0.05027823522686958,0.09816227108240128
1759865030330277000,2.357277099609375,-0.040701430290937424,-0.10773907601833344,0.05267243832349777
1759865030350388200,2.37738818359375,-0.047884032130241394,0.033518824726343155,0.19632454216480255
1759865030370529800,2.39752978515625,-0.13168109953403473,-0.11971008777618408,0.10534487664699554
1759865030420884000,2.447884033203125,-0.12449848651885986,-0.1149216815829277,0.1388636976480484
1759865030451157200,2.4781572265625,-0.15322890877723694,-0.1173158809542656,0
1759865030461228000,2.48822802734375,-0.1867477297782898,-0.21547815203666687,0.033518824726343155
1759865030501572400,2.528572265625,-0.47165772318840027,-0.5506663918495178,-0.1388636976480484
1759865030511673600,2.538673583984375,-0.17956513166427612,-0.2801215946674347,0.1412578970193863
1759865030531815200,2.558815185546875,-0.014365210197865963,-0.011971008032560349,-0.19871874153614044
1759865030541886000,2.568885986328125,0.11013327538967133,0.3663128614425659,-0.2513911724090576
1759865030582169300,2.60916943359375,0.1867477297782898,-0.035913024097681046,0.15083470940589905
1759865030622422000,2.649422119140625,0.016759412363171577,0.06464344263076782,0.44532153010368347
1759865030632523300,2.659523193359375,-0.14365209639072418,-0.09576806426048279,0.4836287498474121
1759865030642594000,2.669593994140625,-0.3734954595565796,-0.05985504388809204,0.38067805767059326
1759865030662705200,2.689705078125,-0.3447650372982025,0,0.28969839215278625
1759865030682816300,2.709816162109375,-0.2346317619085312,-0.05985504388809204,0.33279404044151306
1759865030713059000,2.74005908203125,-0.08379705995321274,-0.2513911724090576,0.08140286058187485
1759865030733200600,2.76020068359375,-0.20111294090747833,-0.28730419278144836,0.031124621629714966
1759865030743302100,2.77030224609375,-0.2106897532939911,-0.11971008777618408,0.040701430290937424
1759865030753373000,2.780373046875,-0.2106897532939911,-0.12210428714752197,0.040701430290937424
1759865030763413200,2.790413330078125,-0.2585737705230713,-0.07900865375995636,0.021547814831137657
1759865030813767200,2.84076708984375,-0.16759411990642548,-0.05027823522686958,0.033518824726343155
1759865030823868400,2.850868408203125,-0.12210428714752197,-0.06703764945268631,0.0454898327589035
1759865030844010000,2.871010009765625,0,-0.028730420395731926,0.11252748221158981
1759865030854050300,2.88105029296875,0.016759412363171577,0.009576806798577309,0.11013327538967133
1759865030864151600,2.891151611328125,-0.009576806798577309,0.028730420395731926,0.08858546614646912
1759865030924515300,2.951515380859375,-0.026336219161748886,-0.1173158809542656,0.17717093229293823
1759865030934586400,2.96158642578125,-0.014365210197865963,-0.07900865375995636,0.12928688526153564
1759865030954666800,2.981666748046875,-0.1867477297782898,-0.11252748221158981,0.035913024097681046
1759865030974808300,3.001808349609375,-0.05506663769483566,-0.22266076505184174,0.05267243832349777
1759865030984909800,3.011909912109375,0.023942016065120697,-0.24420857429504395,0.10055647045373917
1759865030995011000,3.022010986328125,-0.11971008777618408,-0.2585737705230713,0.05746084079146385
1759865031005112300,3.0321123046875,-0.12689268589019775,-0.2346317619085312,0.0694318488240242
1759865031015213600,3.042213623046875,-0.14604631066322327,-0.20111294090747833,0
1759865031025315000,3.052315185546875,-0.1364694982767105,-0.19871874153614044,0.023942016065120697
1759865031035416300,3.062416259765625,-0.08140286058187485,-0.20350714027881622,0.090979665517807
1759865031045487000,3.072487060546875,-0.10295066982507706,-0.2059013396501541,0.08858546614646912
1759865031055558000,3.082557861328125,0,-0.24899697303771973,0.1173158809542656
1759865031065628700,3.092628662109375,0.0454898327589035,-0.16519992053508759,0.019153613597154617
1759865031085770200,3.112770263671875,0.09576806426048279,-0.15801730751991272,0.035913024097681046
1759865031115982800,3.14298291015625,-0.19153612852096558,-0.06464344263076782,0.2322375625371933
1759865031126084000,3.153083984375,-0.22026655077934265,0.023942016065120697,0.15322890877723694
1759865031136155000,3.16315478515625,-0.20111294090747833,0.1412578970193863,0.1628057211637497
1759865031146195200,3.1731953125,-0.17717093229293823,0.1173158809542656,0.05027823522686958
1759865031156296400,3.18329638671875,-0.011971008032560349,0.05267243832349777,0.05267243832349777
1759865031166367200,3.1933671875,0.10055647045373917,0.13407529890537262,0.06464344263076782
1759865031186448000,3.21344775390625,-0.004788403399288654,-0.014365210197865963,0.13168109953403473
1759865031206620000,3.233619873046875,-0.038307227194309235,-0.016759412363171577,0.07661445438861847
1759865031216660200,3.24366015625,-0.016759412363171577,-0.047884032130241394,0.12449848651885986
1759865031226731000,3.25373095703125,-0.05985504388809204,-0.031124621629714966,0.15562310814857483
1759865031236832300,3.263832275390625,-0.043095629662275314,-0.05746084079146385,0.17717093229293823
1759865031246933800,3.273933837890625,-0.05267243832349777,-0.1628057211637497,0.05506663769483566
1759865031257035000,3.284034912109375,-0.05027823522686958,-0.1628057211637497,0.05746084079146385
1759865031267075300,3.294075439453125,-0.0933738648891449,-0.181959331035614,-0.002394201699644327
1759865031277146000,3.30414599609375,-0.15083470940589905,-0.18914192914962769,0.023942016065120697
1759865031307297500,3.334297607421875,-0.26336219906806946,-0.18914192914962769,-0.035913024097681046
1759865031317368300,3.344368408203125,-0.26336219906806946,-0.17477671802043915,-0.026336219161748886
1759865031327469600,3.354469482421875,-0.2537853717803955,-0.272938996553421,-0.0454898327589035
1759865031337540400,3.364540283203125,-0.17717093229293823,-0.3495534360408783,-0.07900865375995636
1759865031347580700,3.37458056640625,-0.0694318488240242,-0.33997663855552673,0.002394201699644327
1759865031357682000,3.384681884765625,-0.06224924325942993,-0.2777273952960968,-0.0071826050989329815
1759865031367783200,3.394783203125,-0.09816227108240128,-0.31603461503982544,0.023942016065120697
1759865031387894300,3.414894287109375,0,-0.33039984107017517,0.07422025501728058
1759865031397995800,3.424995849609375,0.038307227194309235,-0.272938996553421,0.09816227108240128
1759865031408035800,3.435035888671875,-0.06703764945268631,-0.19393034279346466,0.181959331035614
1759865031418106600,3.445106689453125,-0.026336219161748886,-0.12928688526153564,0.21547815203666687
1759865031428116500,3.455116455078125,-0.047884032130241394,-0.0694318488240242,0.2298433631658554
1759865031438217700,3.4652177734375,-0.035913024097681046,-0.043095629662275314,0.24181437492370605
1759865031448258000,3.475258056640625,-0.023942016065120697,-0.043095629662275314,0.3256114423274994
1759865031458298400,3.48529833984375,-0.009576806798577309,-0.10055647045373917,0.33518823981285095
1759865031468369200,3.495369140625,-0.07422025501728058,-0.009576806798577309,0.3974374830722809
1759865031478440000,3.50543994140625,-0.08379705995321274,-0.014365210197865963,0.2944868206977844
1759865031508683000,3.53568310546875,-0.10295066982507706,0.06703764945268631,0.31603461503982544
1759865031528794000,3.555794189453125,-0.08379705995321274,0.08140286058187485,0.1388636976480484
1759865031548935700,3.575935791015625,-0.090979665517807,0.05267243832349777,0.05746084079146385
1759865031559006500,3.58600634765625,-0.10295066982507706,0.028730420395731926,0.07900865375995636
1759865031569077200,3.5960771484375,-0.15322890877723694,0.016759412363171577,0.10773907601833344
1759865031579017500,3.606017578125,-0.08140286058187485,0.033518824726343155,0.10534487664699554
1759865031609229800,3.636229736328125,0.009576806798577309,-0.1604115068912506,0.19393034279346466
1759865031619300600,3.646300537109375,-0.019153613597154617,-0.13168109953403473,0.16519992053508759
1759865031629371400,3.656371337890625,-0.040701430290937424,-0.05027823522686958,0.17477671802043915
1759865031639473000,3.666472900390625,-0.004788403399288654,-0.023942016065120697,0.15801730751991272
1759865031649543700,3.676543701171875,0.05267243832349777,-0.05985504388809204,0.0694318488240242
1759865031659614500,3.686614501953125,0.043095629662275314,-0.22505496442317963,0.13407529890537262
1759865031669685200,3.696685302734375,0.19153612852096558,-0.26096799969673157,0.06703764945268631
1759865031679786500,3.706786376953125,0.31364041566848755,-0.26096799969673157,0.1364694982767105
1759865031689826800,3.716826904296875,0.2585737705230713,-0.15562310814857483,0.17717093229293823
1759865031720039200,3.7470390625,-0.002394201699644327,0.028730420395731926,0.1388636976480484
1759865031740211500,3.76721142578125,0.038307227194309235,-0.08619125932455063,0.3447650372982025
1759865031750251500,3.77725146484375,0.040701430290937424,-0.08619125932455063,0.3447650372982025
1759865031760322300,3.787322265625,0.26575639843940735,-0.1867477297782898,0.33997663855552673
1759865031770393300,3.797393310546875,0.5195417404174805,-0.1867477297782898,0.31603461503982544
1759865031780494600,3.80749462890625,0.6943184733390808,-0.23702596127986908,0.35673606395721436
1759865031810737400,3.8377373046875,0.9888052940368652,-0.05027823522686958,0.44532153010368347
1759865031820777700,3.84777783203125,0.8571242094039917,-0.06224924325942993,0.4668693244457245
1759865031830879000,3.85787890625,0.8236053586006165,-0.08619125932455063,0.5602431893348694
1759865031840949800,3.86794970703125,0.9888052940368652,-0.031124621629714966,0.5291185975074768
1759865031851020500,3.8780205078125,0.9624691009521484,0.15562310814857483,0.6919242739677429
1759865031861122000,3.8881220703125,0.7852981686592102,0.33039984107017517,0.9744400978088379
1759865031871223300,3.898223388671875,0.768538773059845,0.6655880808830261,1.1061211824417114
1759865031881263600,3.908263671875,0.7996633648872375,0.9528923034667969,0.9026140570640564
1759865031901466000,3.928466064453125,1.1779472827911377,0.8523358106613159,0.19153612852096558
1759865031931709200,3.958709228515625,1.436521053314209,0.8762778043746948,-0.44771572947502136
1759865031941749500,3.96874951171875,1.173158884048462,1.0438719987869263,-0.4189853072166443
1759865031951820300,3.9788203125,0.5554547905921936,1.2617442607879639,-0.4141969084739685
1759865031961891000,3.98889111328125,-0.2992752194404602,1.3239935636520386,-0.43335050344467163
1759865031971961900,3.9989619140625,-0.9864110946655273,1.2856862545013428,-0.44771572947502136
1759865031992073000,4.019072998046875,-1.0319008827209473,1.2090718746185303,-0.6655880808830261
1759865032012214500,4.039214599609375,-0.6129156351089478,1.0821791887283325,-0.45250412821769714
1759865032032356000,4.059356201171875,-0.7206547260284424,0.8930372595787048,-0.05267243832349777
1759865032052528000,4.079528076171875,-1.2090718746185303,0.33279404044151306,-0.0694318488240242
1759865032072731000,4.09973095703125,-1.2497732639312744,-0.45489832758903503,0.05985504388809204
1759865032082771200,4.109771240234375,-1.048660397529602,-0.7733271718025208,0.08619125932455063
1759865032092842000,4.119842041015625,-0.7757213711738586,-0.8451532125473022,0.1364694982767105
1759865032122993400,4.149993408203125,1.3910311460494995,-0.8619126081466675,-1.9488801956176758
1759865032133064200,4.160064208984375,-0.47644615173339844,-2.255337953567505,-2.607285737991333
1759865032143135000,4.170135009765625,0.7182605266571045,-1.0989385843276978,-1.6328455209732056
1759865032153236200,4.180236328125,-1.2330138683319092,-0.5746083855628967,-1.2521674633026123
1759865032163307000,4.19030712890625,-1.98958158493042,-0.2322375625371933,-1.0007762908935547
1759865032173377800,4.200377685546875,-1.4891934394836426,-0.3998316824436188,-1.1348515748977661
1759865032183418000,4.210418212890625,-0.5985504388809204,-0.15083470940589905,-0.8643068075180054
1759865032193489000,4.220489013671875,-0.569819986820221,-0.31842881441116333,-0.49320554733276367
1759865032223762400,4.250762451171875,0.33518823981285095,0.8259995579719543,0.5147533416748047
1759865032233833200,4.260833251953125,0.07422025501728058,0.6344634294509888,1.1971008777618408
1759865032243904000,4.270904052734375,0.40940847992897034,0.10055647045373917,1.1348515748977661
1759865032253944300,4.2809443359375,0.45489832758903503,0.05985504388809204,1.1348515748977661
1759865032264015000,4.29101513671875,-1.0989385843276978,-0.17238251864910126,-0.5171475410461426
1759865032274055400,4.301055419921875,-0.26336219906806946,0.43335050344467163,-0.7374141216278076
1759865032284156700,4.31115673828125,-0.24660277366638184,0.5937620401382446,0.24181437492370605
1759865032294258000,4.3212578125,-0.47884035110473633,-0.014365210197865963,1.5682021379470825
1759865032334602200,4.361602294921875,0.040701430290937424,1.1971008777618408,0.4596867263317108
1759865032344673000,4.371673095703125,0.28969839215278625,1.0989385843276978,0.4692635238170624
1759865032354743800,4.381743896484375,0.4812345504760742,0.9552865028381348,0.7350199222564697
1759865032364814600,4.391814697265625,0.1628057211637497,0.9433154463768005,1.1300631761550903
1759865032374885400,4.401885498046875,-0.3495534360408783,0.5817909836769104,1.4628572463989258
1759865032384925700,4.41192578125,-0.14365209639072418,0.3687070608139038,1.3623007535934448
1759865032395027000,4.42202685546875,0.26336219906806946,0.2537853717803955,0.993593692779541
1759865032435279600,4.462279541015625,0.09816227108240128,-0.9696516990661621,2.099714994430542
1759865032445350400,4.472350341796875,0.09576806426048279,-1.558625340461731,2.0374655723571777
1759865032455421200,4.482421142578125,0.2537853717803955,-1.5849615335464478,1.9033904075622559
1759865032465461500,4.49246142578125,0.3711012601852417,-1.173158884048462,2.6791117191314697
1759865032475501800,4.502501708984375,0.4644751250743866,-0.9097966551780701,2.6791117191314697
1759865032485572600,4.512572509765625,1.5945383310317993,-0.4908113479614258,2.470816135406494
1759865032495643400,4.522643310546875,1.1779472827911377,0.1867477297782898,2.363077163696289
1759865032545966800,4.572966796875,-0.021547814831137657,0.11013327538967133,-1.1228805780410767
1759865032556068400,4.583068359375,-0.6057330369949341,-0.6153098344802856,-2.248155355453491
1759865032566108700,4.593108642578125,-0.950498104095459,-0.5746083855628967,-3.8115692138671875
1759865032576179500,4.603179443359375,-1.094150185585022,-0.31364041566848755,-5.360617637634277
1759865032586280700,4.61328076171875,-1.4867992401123047,0.11013327538967133,-4.168305397033691
1759865032596321000,4.623321044921875,-1.7070658206939697,0.20350714027881622,-1.558625340461731
1759865032606391800,4.633391845703125,-1.7286136150360107,1.0893617868423462,-1.800439715385437
1759865032636604200,4.663604248046875,0.3974374830722809,-4.24970817565918,-7.850587368011475
1759865032646705400,4.673705322265625,0.06464344263076782,-3.7038300037384033,-9.119514465332031
1759865032656745700,4.683745849609375,0.47405192255973816,-2.0254945755004883,-7.790732383728027
1759865032666816500,4.69381640625,1.070208191871643,-2.2433669567108154,-7.898471355438232
1759865032676887300,4.70388720703125,2.276885747909546,-2.4899697303771973,-7.240066051483154
1759865032686988800,4.71398876953125,1.3239935636520386,-3.2537200450897217,-6.090848922729492
1759865032697059600,4.7240595703125,0.011971008032560349,-2.964021682739258,-5.377377033233643
1759865032707099600,4.734099609375,0.667982280254364,-3.1914708614349365,-6.3063273429870605
1759865032717170700,4.744170654296875,-0.6967126727104187,-2.561795711517334,-6.495469093322754
1759865032757392600,4.784392578125,-0.038307227194309235,-1.2186486721038818,-1.8914192914962769
1759865032777534500,4.804534423828125,-0.5339069962501526,-0.3232172429561615,-0.4141969084739685
1759865032787605200,4.814605224609375,-0.2059013396501541,-0.07661445438861847,-2.8419175148010254
1759865032797676000,4.824676025390625,-0.33997663855552673,-2.1811177730560303,-1.5729905366897583
1759865032807746800,4.834746826171875,-0.6991068720817566,-2.363077163696289,0.6344634294509888
1759865032817817600,4.844817626953125,0.08140286058187485,-1.2018892765045166,-0.8667010068893433
1759865032827827200,4.8548271484375,0.016759412363171577,-0.7038952708244324,-0.2322375625371933
1759865032858100700,4.885100830078125,-0.2298433631658554,-1.6304513216018677,-0.4357447028160095
1759865032868110600,4.895110595703125,0.4644751250743866,-0.7781155705451965,1.5275006294250488
1759865032878181400,4.905181396484375,-0.37828385829925537,-0.6033388376235962,0.7038952708244324
1759865032888252200,4.915252197265625,-0.35434186458587646,-0.3447650372982025,-0.6368576288223267
1759865032898353400,4.925353515625,-0.0694318488240242,-2.33913516998291,-0.6847416758537292
1759865032908393700,4.935393798828125,-0.12210428714752197,-0.8355764150619507,0.10773907601833344
1759865032918495000,4.945494873046875,-1.3479355573654175,-0.6009446382522583,1.8555063009262085
1759865032928565800,4.955565673828125,-0.811634361743927,-1.0582371950149536,1.2210428714752197
1759865032938636500,4.965636474609375,-0.26815059781074524,-1.0342950820922852,-1.625662922859192
1759865032958778000,4.985778076171875,-2.691082715988159,-1.50355863571167,-1.4628572463989258
1759865032968849200,4.99584912109375,0.15562310814857483,2.9089550971984863,-0.9648633003234863
1759865032978920000,5.005919921875,-0.10534487664699554,0.009576806798577309,-0.4381389021873474
1759865032988960000,5.0159599609375,0.9481038451194763,-0.06464344263076782,-2.078166961669922
1759865032999061500,5.0260615234375,0.8643068075180054,-1.1492167711257935,-1.2306196689605713
1759865033009162800,5.036162841796875,1.8195933103561401,-0.3232172429561615,-3.2800562381744385
1759865033019233500,5.046233642578125,0.9696516990661621,-1.1013327836990356,-2.564189910888672
1759865033029273900,5.05627392578125,-1.1228805780410767,-0.5554547905921936,-3.5673606395721436
1759865033059516700,5.0865166015625,-3.864241600036621,-0.9097966551780701,-3.4548330307006836
1759865033069587500,5.09658740234375,-3.19865345954895,-1.944091796875,-1.316810965538025
1759865033079627800,5.106627685546875,-0.31124621629714966,-0.35913026332855225,-4.795586109161377
1759865033089698600,5.116698486328125,0.26336219906806946,0.7709329724311829,8.571242332458496
1759865033099739000,5.12673876953125,0.8188169598579407,0.8954314589500427,-11.24795913696289
1759865033109840100,5.136840087890625,-2.7102363109588623,2.451662540435791,-11.1474027633667
1759865033119880400,5.14688037109375,-3.1435868740081787,-2.829946517944336,-1.091755986213684
1759865033129951200,5.156951171875,-1.0103530883789062,-3.1938650608062744,6.564900875091553
1759865033140052700,5.167052734375,-1.946485996246338,-3.423708438873291,9.95748519897461
1759865033150123500,5.17712353515625,-1.6208745241165161,-2.477998733520508,7.802703380584717
1759865033170234600,5.197234619140625,2.8778305053710938,1.4173674583435059,-0.9265560507774353
1759865033200447000,5.227447021484375,-1.1540051698684692,4.163516521453857,-2.33913516998291
1759865033220588500,5.247588623046875,-1.5107412338256836,1.0462661981582642,-2.4899697303771973
1759865033230659300,5.257659423828125,-1.6112977266311646,1.1827356815338135,-2.4013843536376953
1759865033240699600,5.26769970703125,-2.0039467811584473,-0.17238251864910126,-2.4875755310058594
1759865033260810800,5.287810791015625,-1.292868971824646,0.9720458984375,-2.63362193107605
1759865033280952300,5.307952392578125,-1.436521053314209,1.7501614093780518,-1.7381904125213623
1759865033311195100,5.338195068359375,-2.956839084625244,0.5267243981361389,-0.5506663918495178
1759865033321266000,5.348265869140625,-2.300827741622925,0.4357447028160095,-0.14365209639072418
1759865033331306200,5.35830615234375,-0.7230489253997803,0.1867477297782898,-0.7445967197418213
1759865033341407700,5.36840771484375,0.871489405632019,-0.5123591423034668,-1.4987702369689941
1759865033371650600,5.398650634765625,1.8411411046981812,-0.6320692300796509,-1.9033904075622559
1759865033381721300,5.408721435546875,0.6967126727104187,-0.4596867263317108,-1.8962076902389526
1759865033391822600,5.418822509765625,0.9217676520347595,0.3974374830722809,-1.7573440074920654
1759865033401893400,5.428893310546875,0.20111294090747833,0.5889736413955688,-1.479616641998291
1759865033411995000,5.438994873046875,-2.0590133666992188,0.49559974670410156,-0.8762778043746948
1759865033432136400,5.459136474609375,-2.604891538619995,1.7836803197860718,0.8786720037460327
1759865033442207200,5.469207275390625,-3.0526070594787598,1.6519991159439087,1.8555063009262085
1759865033452278000,5.479278076171875,-1.9776105880737305,1.292868971824646,2.499546527862549
1759865033492622300,5.519622314453125,1.3192051649093628,-0.26815059781074524,3.1435868740081787
1759865033502723600,5.5297236328125,1.3048399686813354,-0.4429273009300232,3.6966474056243896
1759865033543037200,5.570037109375,0.3232172429561615,-1.115697979927063,3.7205893993377686
1759865033563209500,5.59020947265625,-0.2561795711517334,-1.45806884765625,3.1316158771514893
1759865033573280300,5.6002802734375,-0.19632454216480255,-1.766920804977417,2.9951462745666504
1759865033583351000,5.61035107421875,0.08858546614646912,-1.8722656965255737,2.559401512145996
1759865033593452300,5.620452392578125,1.2761094570159912,-1.9943699836730957,1.86508309841156
1759865033603523000,5.630523193359375,-0.40940847992897034,-2.1547815799713135,1.2234370708465576
1759865033613624300,5.640624267578125,0.751779317855835,-3.1244332790374756,0.5363011956214905
1759865033623725800,5.650725830078125,1.9297266006469727,-3.687070608139038,-0.3878606855869293
1759865033633796600,5.660796630859375,2.2170307636260986,-3.44765043258667,-1.1563993692398071
1759865033643867400,5.670867431640625,1.766920804977417,-3.9049429893493652,-1.0893617868423462
1759865033653968600,5.68096875,-0.0933738648891449,-3.9240965843200684,0.21787235140800476
1759865033684211500,5.71121142578125,-3.421314239501953,-2.3367409706115723,1.5418659448623657
1759865033724555800,5.7515556640625,-1.867477297782898,-1.434126853942871,0.7326257228851318
1759865033734596000,5.76159619140625,-0.8307880163192749,-1.0989385843276978,0.5315127968788147
1759865033744667000,5.7716669921875,-0.8212111592292786,-1.1851298809051514,0.3471592366695404
1759865033754737700,5.781737548828125,-0.7230489253997803,-0.8212111592292786,-0.09816227108240128
1759865033764808400,5.791808349609375,-1.3766659498214722,-0.6919242739677429,-0.3758896589279175
1759865033815223600,5.8422236328125,0.090979665517807,1.7286136150360107,-1.4772224426269531
1759865033825294300,5.85229443359375,0.49320554733276367,1.8842366933822632,-1.6903064250946045
1759865033835365000,5.862365234375,0.4141969084739685,1.8148049116134644,-1.5658079385757446
1759865033845436000,5.872435791015625,-0.06224924325942993,1.5179238319396973,-1.4245500564575195
1759865033855537200,5.882537109375,-0.395043283700943,1.1037269830703735,-1.1037269830703735
1759865033885719000,5.912718994140625,-0.45010992884635925,-0.42377370595932007,-0.33518823981285095
1759865033905860900,5.93286083984375,1.7501614093780518,0.7254431247711182,-0.4812345504760742
1759865033915901000,5.94290087890625,1.2042834758758545,0.4381389021873474,-0.3016694188117981
1759865033926002400,5.95300244140625,1.0773907899856567,0.3232172429561615,-0.16519992053508759
1759865033936042800,5.963042724609375,1.216254472732544,0.7781155705451965,-0.05027823522686958
1759865033946113500,5.973113525390625,1.01753568649292,0.5985504388809204,0.17956513166427612
1759865033956214800,5.98321484375,0.5219359993934631,0.4596867263317108,0.3280056416988373
1759865033966285600,5.99328564453125,0.2346317619085312,1.3670891523361206,0.33758243918418884
1759865034006599200,6.03359912109375,2.9927520751953125,-0.3495534360408783,0.6727706789970398
1759865034036811800,6.063811767578125,2.425326347351074,-0.2346317619085312,0.8810662031173706
1759865034046851800,6.073851806640625,2.2194249629974365,0.4165911078453064,0.8236053586006165
1759865034056953300,6.083953369140625,2.011129379272461,0.8954314589500427,0.8643068075180054
1759865034067024100,6.094024169921875,1.98958158493042,1.036689281463623,0.8331822156906128
1759865034107276800,6.13427685546875,2.094926595687866,1.2737152576446533,0.8858546018600464
1759865034117378000,6.1443779296875,2.27209734916687,1.0821791887283325,0.8020575642585754
1759865034127448800,6.15444873046875,2.628833532333374,1.0606313943862915,0.6967126727104187
1759865034137519600,6.16451953125,2.4851813316345215,1.0319008827209473,0.7948749661445618
1759865034147560000,6.174559814453125,2.3127987384796143,0.6631938815116882,0.9457096457481384
1759865034157661200,6.1846611328125,2.183511972427368,0.44532153010368347,1.0893617868423462
1759865034167732000,6.19473193359375,2.1715409755706787,0.4692635238170624,1.3503297567367554
1759865034187873800,6.214873779296875,1.6950948238372803,-0.586579442024231,1.659181833267212
1759865034208045800,6.2350458984375,1.8962076902389526,-1.0007762908935547,1.8411411046981812
1759865034218116600,6.24511669921875,1.7142484188079834,-0.7326257228851318,1.8411411046981812
1759865034228187400,6.2551875,1.6615760326385498,-0.5841852426528931,1.8579005002975464
1759865034238227700,6.265227783203125,1.501164436340332,-0.4908113479614258,1.778891921043396
1759865034248298500,6.275298583984375,1.2976573705673218,-0.4381389021873474,1.580173134803772
1759865034258369300,6.285369384765625,1.0223240852355957,-0.6200982332229614,1.6184803247451782
1759865034268348700,6.2953486328125,0.4165911078453064,-0.6200982332229614,1.6519991159439087
1759865034278419500,6.30541943359375,-0.1364694982767105,-0.35673606395721436,1.4053963422775269
1759865034288490200,6.315490234375,-0.15322890877723694,-0.4405331015586853,1.357512354850769
1759865034308540200,6.3355400390625,-0.45250412821769714,-0.8259995579719543,1.1899182796478271
1759865034318641400,6.345641357421875,-0.6009446382522583,-0.9624691009521484,1.4772224426269531
1759865034328743000,6.355742919921875,-0.5147533416748047,-0.4429273009300232,1.4197616577148438
1759865034338844200,6.36584423828125,-0.7445967197418213,-0.043095629662275314,1.4245500564575195
1759865034348915000,6.3759150390625,-1.015141487121582,0.13168109953403473,1.5203180313110352
1759865034358985700,6.38598583984375,-1.2641384601593018,0.10773907601833344,1.6352397203445435
1759865034369056500,6.396056396484375,-2.0638017654418945,-0.13407529890537262,1.8842366933822632
1759865034389198000,6.416197998046875,-2.604891538619995,0.011971008032560349,1.1324573755264282
1759865034399268900,6.426268798828125,-2.583343744277954,0.14365209639072418,0.9840168952941895
1759865034409339600,6.436339599609375,-3.248931646347046,0.004788403399288654,0.8140285611152649
1759865034419380000,6.4463798828125,-3.2537200450897217,-0.19871874153614044,0.6392518281936646
1759865034429420300,6.456420166015625,-2.8395233154296875,-0.507570743560791,0.6655880808830261
1759865034439491000,6.466490966796875,-2.3965959548950195,-0.42856210470199585,0.7565677165985107
1759865034449561900,6.476561767578125,-2.3798365592956543,-0.3687070608139038,0.7948749661445618
1759865034459632600,6.486632568359375,-2.7772738933563232,-0.5051765441894531,0.7565677165985107
1759865034469703400,6.496703369140625,-2.980781078338623,-0.6488286852836609,0.727837324142456
1759865034479805000,6.506804931640625,-2.607285737991333,-0.31603461503982544,0.363918662071228
1759865034510017300,6.537017333984375,-1.8339585065841675,1.2425906658172607,-0.13168109953403473
1759865034520027100,6.547027099609375,-1.656787633895874,1.400607943534851,-0.43095630407333374
1759865034530098000,6.557097900390625,-0.9864110946655273,1.9919757843017578,-0.667982280254364
1759865034540168700,6.567168701171875,-0.9433154463768005,1.5059528350830078,-0.6033388376235962
1759865034550209000,6.577208984375,-0.8786720037460327,0.9265560507774353,-0.40462008118629456
1759865034560279800,6.58727978515625,-0.038307227194309235,1.0319008827209473,-0.3902548849582672
1759865034570381000,6.597381103515625,0.011971008032560349,1.094150185585022,-0.6512228846549988
1759865034580451800,6.607451904296875,0.3256114423274994,1.0989385843276978,-0.6607996821403503
1759865034610633700,6.6376337890625,1.946485996246338,1.9249382019042969,-2.078166961669922
1759865034620674000,6.647674072265625,1.4221558570861816,2.7892448902130127,-1.6950948238372803
1759865034630714400,6.65771435546875,1.0821791887283325,3.1531636714935303,-1.1635819673538208
1759865034640815600,6.667815673828125,0.9409212470054626,2.8993782997131348,-0.7805097699165344
1759865034650886400,6.677886474609375,1.3527239561080933,2.7030537128448486,-0.6200982332229614
1759865034660987600,6.687987548828125,1.580173134803772,2.454056739807129,-0.37828385829925537
1759865034671058400,6.698058349609375,1.8770540952682495,1.8555063009262085,-0.10055647045373917
1759865034681098800,6.7080986328125,2.0183119773864746,1.3311761617660522,-0.07661445438861847
1759865034711341800,6.738341796875,2.6216509342193604,1.4652514457702637,-0.3064578175544739
1759865034721412600,6.74841259765625,1.6184803247451782,1.436521053314209,-0.23942017555236816
1759865034731452700,6.75845263671875,1.6352397203445435,1.3910311460494995,-0.26096799969673157
1759865034741523700,6.768523681640625,1.2330138683319092,0.47644615173339844,0.1628057211637497
1759865034751594500,6.778594482421875,1.2042834758758545,-0.26575639843940735,0.4596867263317108
1759865034761665300,6.788665283203125,1.2018892765045166,-0.40940847992897034,0.768538773059845
1759865034771705600,6.79870556640625,1.4317326545715332,-0.28730419278144836,0.9600749015808105
1759865034781806800,6.808806884765625,1.644816517829895,-0.20350714027881622,1.3503297567367554
1759865034791877600,6.818877685546875,1.5322890281677246,-0.3663128614425659,1.6304513216018677
1759865034822090000,6.849090087890625,0.9193734526634216,1.0630255937576294,1.3838485479354858
1759865034832191200,6.859191162109375,0.7541735172271729,0.8858546018600464,1.0582371950149536
1759865034842231600,6.8692314453125,0.6344634294509888,0.45250412821769714,1.0534487962722778
1759865034852302300,6.87930224609375,0.3208230137825012,0.1843535304069519,1.213860273361206
1759865034862403800,6.88940380859375,-0.09576806426048279,0.12210428714752197,1.5418659448623657
1759865034872474600,6.899474609375,-0.3926490843296051,0.26336219906806946,1.8052281141281128
1759865034882545400,6.90954541015625,-0.7589619159698486,-0.19871874153614044,2.03507137298584
1759865034892585700,6.919585693359375,-1.1779472827911377,-0.7230489253997803,2.011129379272461
1759865034902656500,6.929656494140625,-1.173158884048462,-1.4508862495422363,2.1499931812286377
1759865034912757800,6.9397578125,-1.0342950820922852,-2.0470423698425293,2.2242133617401123
1759865034932868900,6.959868896484375,-0.586579442024231,-2.3104045391082764,2.31758713722229
1759865034942909200,6.9699091796875,-0.6607996821403503,-2.078166961669922,2.7222073078155518
1759865034952980000,6.97997998046875,-0.8978256583213806,-2.0829553604125977,2.631227731704712
1759865034963081200,6.990081298828125,-1.2186486721038818,-1.9919757843017578,2.4875755310058594
1759865034973152000,7.000152099609375,-1.2473790645599365,-1.8842366933822632,2.1499931812286377
1759865034983192300,7.0101923828125,-1.7717092037200928,-1.7908629179000854,1.4987702369689941
1759865034993232600,7.020232666015625,-2.2002713680267334,-1.656787633895874,0.950498104095459
1759865035003334000,7.030333984375,-2.030282974243164,-1.2186486721038818,0.47165772318840027
1759865035033546200,7.060546142578125,-1.6615760326385498,-0.0694318488240242,-0.9265560507774353
1759865035043617000,7.070616943359375,-1.6112977266311646,-0.1149216815829277,-1.278503656387329
1759865035053687800,7.080687744140625,-1.3838485479354858,-0.363918662071228,-1.6496049165725708
1759865035063789300,7.090789306640625,-1.1899182796478271,-0.3711012601852417,-1.9943699836730957
1759865035073860000,7.100860107421875,-0.9648633003234863,-0.3758896589279175,-2.252943754196167
1759865035094032100,7.1210322265625,-0.272938996553421,0.15801730751991272,-2.2002713680267334
1759865035104103000,7.13110302734375,0.031124621629714966,0.2585737705230713,-2.032677173614502
1759865035114143200,7.141143310546875,0.31842881441116333,0.3998316824436188,-1.5107412338256836
1759865035124244500,7.151244384765625,0.5434837937355042,0.3663128614425659,-1.1324573755264282
1759865035134284800,7.161284912109375,0.6057330369949341,0.26575639843940735,-0.790086567401886
1759865035144386000,7.171385986328125,0.6536170840263367,0.002394201699644327,-0.6392518281936646
1759865035154487600,7.181487548828125,0.6488286852836609,-0.07900865375995636,-0.6200982332229614
1759865035164588800,7.1915888671875,0.8475474119186401,0.15322890877723694,-0.4572925269603729
1759865035174659600,7.20165966796875,0.8475474119186401,0.2346317619085312,-0.5123591423034668
1759865035184700000,7.211699951171875,0.871489405632019,0.2992752194404602,-0.43335050344467163
1759865035194740200,7.221740234375,0.9313444495201111,0.3471592366695404,-0.4812345504760742
1759865035204811000,7.23181103515625,1.036689281463623,0.5602431893348694,-0.5123591423034668
1759865035214881800,7.2418818359375,1.1468225717544556,1.1109095811843872,-0.3734954595565796
1759865035224952600,7.25195263671875,1.1659762859344482,1.0893617868423462,-0.3687070608139038
1759865035265205200,7.292205322265625,1.8483237028121948,0.33279404044151306,0.13407529890537262
1759865035285346800,7.312346923828125,1.8171991109848022,0.3447650372982025,0.26575639843940735
1759865035295387100,7.32238720703125,1.7286136150360107,0.43095630407333374,0.31124621629714966
1759865035305458000,7.3324580078125,1.6879122257232666,0.3232172429561615,0.4165911078453064
1759865035315559200,7.34255908203125,1.6065093278884888,0.27054479718208313,0.40462008118629456
1759865035325630000,7.3526298828125,1.5203180313110352,0.09576806426048279,0.4692635238170624
1759865035355811800,7.382811767578125,1.721431016921997,-0.2992752194404602,0.7326257228851318
1759865035365913300,7.392913330078125,1.6304513216018677,-0.26336219906806946,0.8355764150619507
1759865035375953400,7.402953369140625,1.482010841369629,-0.15801730751991272,1.0079588890075684
1759865035386055000,7.413054931640625,1.45806884765625,-0.14844051003456116,1.0295066833496094
1759865035396125700,7.423125732421875,1.3742717504501343,-0.15322890877723694,1.1204863786697388
1759865035406196500,7.433196533203125,1.3024457693099976,-0.33997663855552673,1.194706678390503
1759865035416267300,7.443267333984375,1.158793568611145,-0.3998316824436188,1.1468225717544556
1759865035426338000,7.453338134765625,1.0199298858642578,-0.42377370595932007,1.173158884048462
1759865035436378400,7.46337841796875,0.7661445140838623,-0.42377370595932007,1.3287819623947144
1759865035486762800,7.5137626953125,-0.8690952062606812,-0.8307880163192749,1.7286136150360107
1759865035496864300,7.5238642578125,-0.9026140570640564,-0.8259995579719543,1.745373010635376
1759865035506965500,7.533965576171875,-0.7852981686592102,-1.039083480834961,1.5275006294250488
1759865035517005800,7.544005859375,-0.667982280254364,-1.1109095811843872,1.5131354331970215
1759865035527015400,7.554015380859375,-0.5841852426528931,-1.0414776802062988,1.680729627609253
1759865035537086500,7.56408642578125,-0.7589619159698486,-0.9696516990661621,1.8195933103561401
1759865035547157200,7.5741572265625,-0.871489405632019,-1.115697979927063,1.9584569931030273
1759865035567298800,7.594298828125,-1.625662922859192,-0.9672574996948242,2.1308395862579346
1759865035577369600,7.60436962890625,-2.1380221843719482,-0.7230489253997803,1.7621324062347412
1759865035587440400,7.6144404296875,-2.738966703414917,-0.31364041566848755,1.4101848602294922
1759865035597511200,7.62451123046875,-3.023876667022705,-0.05267243832349777,0.9672574996948242
1759865035607582000,7.63458203125,-2.8203697204589844,0.17956513166427612,0.49799394607543945
1759865035617683200,7.64468310546875,-2.52109432220459,0.40222588181495667,-0.028730420395731926
1759865035627754000,7.65475390625,-2.2242133617401123,0.42616790533065796,-0.5171475410461426
1759865035637824800,7.66482470703125,-1.9033904075622559,0.3878606855869293,-0.7038952708244324
1759865035668067800,7.69506787109375,-1.2641384601593018,1.0271124839782715,-1.2689268589019775
1759865035678138600,7.705138671875,-1.3048399686813354,1.158793568611145,-1.292868971824646
1759865035688209400,7.71520947265625,-1.161187767982483,1.4173674583435059,-1.1085153818130493
1759865035698249700,7.725249755859375,-1.0319008827209473,1.6184803247451782,-0.9241618514060974
1759865035718360800,7.74536083984375,-0.43335050344467163,1.6136919260025024,-0.42616790533065796
1759865035728431600,7.755431640625,-0.2777273952960968,1.50355863571167,-0.38067805767059326
1759865035738502400,7.76550244140625,-0.17956513166427612,1.2066776752471924,-0.2513911724090576
1759865035758674400,7.78567431640625,0.33997663855552673,0.7254431247711182,-0.3902548849582672
1759865035768745200,7.7957451171875,0.6871358752250671,0.4572925269603729,-0.40701428055763245
1759865035798988300,7.82598828125,1.2330138683319092,0.7733271718025208,-0.7398083209991455
1759865035809059000,7.83605908203125,1.292868971824646,0.6799532771110535,-0.7350199222564697
1759865035819129900,7.8461298828125,1.5610195398330688,0.5602431893348694,-0.8068459630012512
1759865035829200600,7.85620068359375,1.7357962131500244,0.5051765441894531,-0.7589619159698486
1759865035839271400,7.866271484375,1.900996208190918,0.1843535304069519,-0.6847416758537292
1759865035879554600,7.906554443359375,1.9632453918457031,-0.19393034279346466,-0.16759411990642548
1759865035889625300,7.916625244140625,1.9943699836730957,-0.13168109953403473,-0.181959331035614
1759865035899696000,7.926696044921875,1.944091796875,-0.031124621629714966,-0.05985504388809204
1759865035909736400,7.936736328125,1.8555063009262085,0.12928688526153564,-0.031124621629714966
1759865035919807200,7.94680712890625,1.8579005002975464,0.3758896589279175,0.11252748221158981
1759865035929878000,7.9568779296875,1.7860745191574097,0.4165911078453064,0.16998831927776337
1759865035939948800,7.96694873046875,1.764526605606079,0.2849099934101105,0.2513911724090576
1759865035949989000,7.976989013671875,1.7717092037200928,0.28969839215278625,0.5171475410461426
1759865035980262700,8.0072626953125,1.4077905416488647,0.17238251864910126,1.0223240852355957
1759865035990272300,8.017272216796876,1.1061211824417114,0.28969839215278625,1.1540051698684692
1759865036000373800,8.027373779296875,0.7565677165985107,0.17477671802043915,1.3527239561080933
1759865036020576300,8.047576171875,-0.20350714027881622,-0.272938996553421,1.8411411046981812
1759865036030586000,8.057586181640625,-0.3902548849582672,-0.5315127968788147,1.8626888990402222
1759865036040657000,8.067656982421875,-0.6655880808830261,-0.871489405632019,2.011129379272461
1759865036050727700,8.077727783203125,-0.7829039692878723,-1.1683704853057861,1.9800047874450684
1759865036080940000,8.10793994140625,-0.7972691655158997,-1.6400281190872192,1.8555063009262085
1759865036091010800,8.1180107421875,-0.4908113479614258,-1.8291701078414917,1.6280571222305298
1759865036101112300,8.1281123046875,-0.0933738648891449,-2.0374655723571777,1.41257905960083
1759865036111152400,8.13815234375,0.2106897532939911,-2.1164743900299072,1.4053963422775269
1759865036121223400,8.148223388671875,0.16998831927776337,-2.2888567447662354,1.5921441316604614
1759865036131294200,8.158294189453125,-0.043095629662275314,-2.1739351749420166,1.7741034030914307
1759865036141334300,8.168334228515626,-0.0454898327589035,-2.207453966140747,1.6496049165725708
1759865036151374600,8.17837451171875,-0.3495534360408783,-2.006340980529785,1.577778935432434
1759865036191688400,8.2186884765625,-0.7876923680305481,-0.13168109953403473,0.05267243832349777
1759865036201759200,8.22875927734375,-1.0869675874710083,0.2944868206977844,-0.5674257874488831
1759865036211830000,8.238830078125,-1.1492167711257935,0.3758896589279175,-0.768538773059845
1759865036221870300,8.248870361328125,-1.1779472827911377,0.3758896589279175,-0.7924807667732239
1759865036231941000,8.258941162109375,-1.4053963422775269,-0.05985504388809204,-0.8403648138046265
1759865036242012000,8.269011962890625,-1.3862427473068237,-0.5291185975074768,-0.7469909191131592
1759865036252082700,8.279082763671875,-1.5705963373184204,-0.8068459630012512,-0.9911994934082031
1759865036272224300,8.299224365234375,-1.3072341680526733,-0.768538773059845,-1.5442601442337036
1759865036302436600,8.3294365234375,-0.2322375625371933,-1.115697979927063,-1.4077905416488647
1759865036312507400,8.33950732421875,0.05506663769483566,-1.2186486721038818,-1.2976573705673218
1759865036322578200,8.349578125,0.28730419278144836,-1.161187767982483,-0.5626373887062073
1759865036332618500,8.359618408203126,0.5793967843055725,-0.9720458984375,-0.3064578175544739
1759865036342658800,8.369658935546875,0.9145850539207458,-0.6799532771110535,-0.35434186458587646
1759865036352729600,8.3797294921875,1.1635819673538208,-0.6057330369949341,-0.44771572947502136
1759865036382842000,8.409842041015626,1.170764684677124,0.5099649429321289,-0.2753331959247589
1759865036392913000,8.419912841796876,1.414973258972168,0.5219359993934631,-0.43095630407333374
1759865036403014100,8.43001416015625,1.6160861253738403,0.6033388376235962,-0.5171475410461426
1759865036413085000,8.4400849609375,1.6424223184585571,0.7972691655158997,-0.48602294921875
1759865036423155700,8.45015576171875,1.8076223134994507,1.0055646896362305,-0.5003881454467773
1759865036433226500,8.4602265625,1.8076223134994507,1.1420341730117798,-0.3687070608139038
1759865036443297300,8.47029736328125,1.9967641830444336,1.0678139925003052,-0.33279404044151306
1759865036453368000,8.4803681640625,2.030282974243164,1.091755986213684,-0.2561795711517334
1759865036463438800,8.49043896484375,1.9991583824157715,1.1085153818130493,-0.10055647045373917
1759865036483611100,8.510611083984376,2.1356279850006104,1.094150185585022,0.08379705995321274
1759865036493712400,8.52071240234375,2.0470423698425293,0.8762778043746948,0.3711012601852417
1759865036503783200,8.530783203125,1.9919757843017578,0.6919242739677429,0.4620809257030487
1759865036513854000,8.54085400390625,1.7573440074920654,0.545877993106842,0.7110779285430908
1759865036523924700,8.5509248046875,1.5921441316604614,0.3878606855869293,0.9696516990661621
1759865036534026200,8.561026123046876,1.2689268589019775,0.33758243918418884,1.1540051698684692
1759865036544127500,8.57112744140625,0.9816226959228516,0.15322890877723694,1.460463047027588
1759865036554198300,8.5811982421875,0.9002198576927185,-0.026336219161748886,1.4915876388549805
1759865036564299500,8.591299560546876,0.8978256583213806,-0.07661445438861847,1.3670891523361206
1759865036594542600,8.62154248046875,0.20350714027881622,-0.3447650372982025,1.534683346748352
1759865036614684200,8.64168408203125,-0.7948749661445618,-0.950498104095459,1.778891921043396
1759865036624755000,8.6517548828125,-1.3766659498214722,-1.0534487962722778,1.9177556037902832
1759865036634825700,8.66182568359375,-1.5298948287963867,-1.3048399686813354,1.9919757843017578
1759865036644896500,8.671896484375,-1.3120225667953491,-1.644816517829895,1.8100165128707886
1759865036654967300,8.68196728515625,-0.8738836050033569,-1.843535304069519,1.3838485479354858
1759865036665038000,8.6920380859375,-0.4357447028160095,-1.6496049165725708,0.8810662031173706
1759865036685179600,8.7121796875,-0.5339069962501526,-0.8523358106613159,1.192312479019165
1759865036695281000,8.722281005859376,-0.9169792532920837,-0.6751648783683777,1.0869675874710083
1759865036705352000,8.73235205078125,-1.4891934394836426,-0.2944868206977844,1.2425906658172607
1759865036715422700,8.742422607421876,-2.408566951751709,0.08858546614646912,1.5921441316604614
1759865036725493500,8.752493408203126,-2.410961151123047,0.08140286058187485,1.5849615335464478
1759865036735594800,8.7625947265625,-3.3734302520751953,0.26815059781074524,1.6184803247451782
1759865036745635000,8.772635009765626,-3.6535518169403076,0.2753331959247589,1.259350061416626
1759865036755675400,8.78267529296875,-3.5051112174987793,0.40222588181495667,0.751779317855835
1759865036765776600,8.792776611328126,-3.0166940689086914,0.730231523513794,0.5339069962501526
1759865036775847400,8.802847412109376,-2.4229321479797363,0.950498104095459,0.4429273009300232
1759865036795928000,8.822927978515626,-1.7070658206939697,1.2042834758758545,0.13168109953403473
1759865036806029300,8.833029296875,-1.4508862495422363,1.256955862045288,-0.05027823522686958
1759865036816100000,8.84310009765625,-1.2856862545013428,1.3120225667953491,-0.3232172429561615
1759865036826201300,8.853201416015626,-1.3000515699386597,1.5466543436050415,-0.23702596127986908
1759865036836272000,8.863272216796876,-1.2665326595306396,1.8531121015548706,-0.19871874153614044
1759865036846373600,8.87337353515625,-1.1851298809051514,1.8914192914962769,-0.17477671802043915
1759865036856475000,8.883474853515626,-1.137245774269104,1.702277421951294,-0.2346317619085312
1759865036866545700,8.893545654296876,-0.9145850539207458,1.4221558570861816,-0.30885201692581177
1759865036876616400,8.903616455078126,-0.6631938815116882,1.194706678390503,-0.47884035110473633
1759865036906828800,8.933828857421876,0.9840168952941895,1.036689281463623,-1.2210428714752197
1759865036916899600,8.943899658203126,1.455674648284912,1.0295066833496094,-1.3670891523361206
1759865036927001000,8.9540009765625,1.7525556087493896,0.8355764150619507,-1.3503297567367554
1759865036937071900,8.96407177734375,2.0614075660705566,0.7134721279144287,-1.2880805730819702
1759865036947142700,8.974142578125,2.2218191623687744,0.507570743560791,-1.2449848651885986
1759865036957244000,8.984243896484376,2.209848165512085,0.35673606395721436,-1.039083480834961
1759865036967314700,8.994314697265626,2.140416383743286,0.13407529890537262,-0.7924807667732239
1759865036997527000,9.024527099609376,1.7525556087493896,0.1604115068912506,-0.14604631066322327
1759865037007628500,9.034628662109375,1.6927006244659424,0.33039984107017517,-0.05506663769483566
1759865037017699300,9.04469921875,1.6496049165725708,0.35673606395721436,0.040701430290937424
1759865037027770000,9.05477001953125,1.5203180313110352,0.42616790533065796,0.1604115068912506
1759865037037841000,9.0648408203125,1.6328455209732056,0.45010992884635925,0.009576806798577309
1759865037047911700,9.07491162109375,1.6879122257232666,0.4165911078453064,-0.033518824726343155
1759865037057982500,9.084982421875,1.8387469053268433,0.4213795065879822,-0.14365209639072418
1759865037068083700,9.095083740234376,1.8124107122421265,0.47165772318840027,-0.12689268589019775
1759865037078185000,9.10518505859375,1.802833914756775,0.4620809257030487,-0.07900865375995636
1759865037088255700,9.115255859375,1.8076223134994507,0.26096799969673157,0.17477671802043915
1759865037098296000,9.125296142578126,1.7884687185287476,0.24420857429504395,0.507570743560791
1759865037128508700,9.1555087890625,1.7381904125213623,0.06224924325942993,0.993593692779541
1759865037138579500,9.165579345703126,1.5514427423477173,0.090979665517807,1.1276689767837524
1759865037148680700,9.1756806640625,1.2306196689605713,0.06703764945268631,1.3886369466781616
1759865037158751500,9.18575146484375,1.0031704902648926,-0.09816227108240128,1.45806884765625
1759865037168852700,9.195852783203126,0.4189853072166443,-0.2849099934101105,1.8195933103561401
1759865037178923500,9.205923583984376,-0.19871874153614044,-0.6512228846549988,2.229001760482788
1759865037188994300,9.215994384765626,-0.8164227604866028,-1.0773907899856567,2.738966703414917
1759865037209135900,9.236135986328126,-1.5538369417190552,-1.6041151285171509,2.494758129119873
1759865037219237400,9.2462373046875,-1.6974890232086182,-1.522712230682373,2.1595699787139893
1759865037229247000,9.2562470703125,-1.7094600200653076,-1.5275006294250488,2.1499931812286377
1759865037239317800,9.26631787109375,-1.9512743949890137,-1.3239935636520386,2.2242133617401123
1759865037249388800,9.276388916015625,-2.073378562927246,-1.6160861253738403,2.5043349266052246
1759865037259459600,9.28645947265625,-2.078166961669922,-2.255337953567505,2.585737943649292
1759865037269530400,9.2965302734375,-2.248155355453491,-2.832340717315674,2.3343467712402344
1759865037279631600,9.306631591796876,-2.3032219409942627,-3.0765492916107178,1.824381709098816
1759865037309813500,9.3368134765625,-1.2689268589019775,-1.86508309841156,-0.586579442024231
1759865037319884300,9.34688427734375,-0.7948749661445618,-1.280897855758667,-1.3527239561080933
1759865037329924600,9.356924560546876,-0.5841852426528931,-0.7805097699165344,-1.9991583824157715
1759865037340025900,9.36702587890625,-0.5339069962501526,-0.5291185975074768,-1.800439715385437
1759865037350127000,9.377127197265626,-1.039083480834961,-0.5841852426528931,-1.3718775510787964
1759865037360167400,9.38716748046875,-1.5275006294250488,-1.1540051698684692,-0.7613561153411865
1759865037370238200,9.39723828125,-1.601720929145813,-1.5442601442337036,-0.3016694188117981
1759865037380309000,9.40730908203125,-1.7310078144073486,-1.4844050407409668,-0.6368576288223267
1759865037390379800,9.4173798828125,-1.3934253454208374,-1.2689268589019775,-0.9816226959228516
1759865037410521600,9.437521484375,-0.3711012601852417,-0.7852981686592102,-1.5059528350830078
1759865037430693600,9.457693603515626,0.5339069962501526,-0.2513911724090576,-1.460463047027588
1759865037440764400,9.467764404296876,0.6943184733390808,-0.20350714027881622,-1.2856862545013428
1759865037450835200,9.477835205078126,0.8188169598579407,-0.023942016065120697,-1.3192051649093628
1759865037460906000,9.487906005859376,1.1109095811843872,0.011971008032560349,-1.256955862045288
1759865037470915800,9.497915771484376,1.0223240852355957,0.07182604819536209,-1.1540051698684692
1759865037481017000,9.50801708984375,0.9816226959228516,0.2777273952960968,-1.1444283723831177
1759865037491057400,9.518057373046876,1.015141487121582,0.2346317619085312,-1.1803414821624756
1759865037521269800,9.548269775390626,1.0295066833496094,0.35673606395721436,-1.3670891523361206
1759865037531340500,9.558340576171876,1.0438719987869263,0.3208230137825012,-1.3646949529647827
1759865037541411300,9.568411376953126,1.1468225717544556,0.28730419278144836,-1.4317326545715332
1759865037551451600,9.57845166015625,1.278503656387329,0.3423708379268646,-1.501164436340332
1759865037561492000,9.588491943359376,1.3910311460494995,0.2992752194404602,-1.460463047027588
1759865037571562800,9.598562744140626,1.292868971824646,0.1604115068912506,-1.213860273361206
1759865037581664000,9.6086640625,1.4867992401123047,-0.0694318488240242,-0.9768342971801758
1759865037601805600,9.6288056640625,1.702277421951294,-0.608127236366272,-0.7948749661445618
1759865037652159700,9.67915966796875,1.1037269830703735,-0.7422025203704834,-0.002394201699644327
1759865037662230500,9.68923046875,1.1492167711257935,-0.8595184087753296,0.1173158809542656
1759865037672240000,9.699240234375,0.9959878921508789,-0.8978256583213806,0.2849099934101105
1759865037682311200,9.709311279296875,0.7757213711738586,-0.9169792532920837,0.5099649429321289
1759865037692382000,9.7193818359375,0.37828385829925537,-1.1755530834197998,1.0893617868423462
1759865037702452700,9.72945263671875,0.019153613597154617,-1.3934253454208374,1.5394717454910278
1759865037712462300,9.73946240234375,-0.11013327538967133,-1.2856862545013428,1.5083470344543457
1759865037752715000,9.779715087890626,-1.0630255937576294,-1.0821791887283325,2.3056161403656006
1759865037762755300,9.78975537109375,-0.9193734526634216,-0.9002198576927185,2.078166961669922
1759865037772826000,9.799826171875,-0.727837324142456,-0.8786720037460327,1.7812861204147339
1759865037782897000,9.80989697265625,-0.9026140570640564,-0.7876923680305481,1.9345149993896484
1759865037792937200,9.819937255859376,-1.194706678390503,-0.6799532771110535,2.0470423698425293
1759865037813109500,9.840109619140625,-1.8698714971542358,-0.19153612852096558,2.185906171798706
1759865037823149600,9.850149658203126,-2.8778305053710938,0.05267243832349777,2.1811177730560303
1759865037853392600,9.880392578125,-3.8738183975219727,0.3926490843296051,1.2330138683319092
1759865037863463400,9.89046337890625,-3.404554843902588,0.48602294921875,0.9624691009521484
1759865037873534200,9.9005341796875,-2.9544448852539062,0.6488286852836609,0.9816226959228516
1759865037883605000,9.91060498046875,-2.2840683460235596,0.6751648783683777,0.6153098344802856
1759865037893675800,9.92067578125,-1.745373010635376,0.871489405632019,0.2537853717803955
1759865037903777000,9.930777099609376,-1.3910311460494995,1.3479355573654175,0.047884032130241394
1759865037913847800,9.940847900390626,-0.9816226959228516,1.7836803197860718,-0.06703764945268631
1759865037923857700,9.950857666015626,-0.7996633648872375,2.1547815799713135,-0.33758243918418884
1759865037933959000,9.960958984375,-0.7182605266571045,2.4372973442077637,-0.40222588181495667
1759865037964110300,9.9911103515625,-0.15801730751991272,2.2242133617401123,-0.5889736413955688
1759865037974211600,10.001211669921876,0.14844051003456116,1.745373010635376,-0.7038952708244324
1759865037984282400,10.011282470703126,0.6105214357376099,1.4915876388549805,-0.9720458984375
1759865037994353400,10.021353515625,1.0965443849563599,1.3742717504501343,-1.139639973640442
1759865038004424200,10.031424072265626,1.534683346748352,1.4437036514282227,-1.4413094520568848
1759865038014525400,10.041525390625,1.965639591217041,1.5921441316604614,-1.623268723487854
1759865038024596200,10.05159619140625,2.097320795059204,1.6184803247451782,-1.5083470344543457
1759865038034636500,10.061636474609376,2.296039342880249,1.3623007535934448,-1.403002142906189
1759865038044737800,10.07173779296875,2.248155355453491,1.2066776752471924,-1.1827356815338135
1759865038064849000,10.091848876953126,2.075772762298584,0.7469909191131592,-0.8906430602073669
1759865038074950100,10.1019501953125,2.032677173614502,0.5434837937355042,-0.7374141216278076
1759865038085021000,10.11202099609375,2.099714994430542,0.49559974670410156,-0.6392518281936646
1759865038095091700,10.122091796875,2.049436569213867,0.5363011956214905,-0.5219359993934631
1759865038105162500,10.13216259765625,1.8818424940109253,0.4812345504760742,-0.3280056416988373
1759865038115264000,10.142263916015626,1.7501614093780518,0.49559974670410156,-0.11252748221158981
1759865038125334800,10.152334716796876,1.6041151285171509,0.49320554733276367,-0.07182604819536209
1759865038135375000,10.162375,1.41257905960083,0.3734954595565796,0.15083470940589905
1759865038145476400,10.172476318359376,1.0749965906143188,0.181959331035614,0.4118026793003082
1759865038175719200,10.20271923828125,0.6991068720817566,0.33518823981285095,0.8523358106613159
1759865038185790000,10.2127900390625,0.7972691655158997,0.10295066982507706,0.8930372595787048
1759865038195860700,10.22286083984375,0.7350199222564697,-0.05746084079146385,0.9648633003234863
1759865038205962200,10.232962158203126,0.6871358752250671,-0.06224924325942993,0.912190854549408
1759865038216002600,10.24300244140625,0.5195417404174805,-0.1364694982767105,0.8810662031173706
1759865038226073300,10.2530732421875,0.47644615173339844,-0.07422025501728058,0.9241618514060974
1759865038236113400,10.263113525390626,0.2537853717803955,-0.002394201699644327,1.137245774269104
1759865038266295300,10.29329541015625,-1.0247182846069336,-0.7709329724311829,1.9847931861877441
1759865038306548200,10.33354833984375,-2.2242133617401123,-2.0638017654418945,2.0685901641845703
1759865038326689800,10.353689697265626,-2.8874073028564453,-2.4827871322631836,2.2170307636260986
1759865038336760600,10.363760498046876,-3.2417490482330322,-2.9951462745666504,2.276885747909546
1759865038346831400,10.373831298828126,-3.28963303565979,-3.4763808250427246,1.7310078144073486
1759865038366942500,10.3939423828125,-3.2178070545196533,-2.6216509342193604,0.22266076505184174
1759865038377013200,10.40401318359375,-2.604891538619995,-1.8794482946395874,-0.6727706789970398
1759865038387084000,10.414083984375,-1.8794482946395874,-0.8379706144332886,-1.8698714971542358
1759865038397124400,10.424124267578126,-1.4532804489135742,0.090979665517807,-2.832340717315674
1759865038407225600,10.4342255859375,-1.2497732639312744,0.8595184087753296,-3.485957622528076
1759865038417326800,10.444326904296876,-1.0797849893569946,1.0007762908935547,-2.896984100341797
1759865038427397600,10.454397705078126,-1.2449848651885986,-0.033518824726343155,-1.8962076902389526
1759865038437499100,10.4644990234375,-1.6663644313812256,-0.47644615173339844,-0.6871358752250671
1759865038447539200,10.474539306640626,-1.9632453918457031,-0.16759411990642548,-0.48602294921875
1759865038487792000,10.514792236328125,-1.0893617868423462,-0.181959331035614,-1.2258312702178955
1759865038507933700,10.53493359375,0.09576806426048279,-0.5386953949928284,-1.2665326595306396
1759865038518004500,10.54500439453125,0.5793967843055725,-0.993593692779541,-1.316810965538025
1759865038528044800,10.555044921875,0.8834604024887085,-1.4891934394836426,-1.1228805780410767
1759865038538146000,10.56514599609375,1.0462661981582642,-1.4772224426269531,-0.9672574996948242
1759865038548186400,10.575186279296876,1.1085153818130493,-1.1659762859344482,-0.6991068720817566
1759865038568297500,10.59529736328125,1.1563993692398071,-0.24899697303771973,-0.849941611289978
1759865038608580600,10.63558056640625,1.8555063009262085,0.45010992884635925,-0.8164227604866028
1759865038618651400,10.6456513671875,1.867477297782898,0.5746083855628967,-0.7230489253997803
1759865038628752600,10.655752685546876,1.867477297782898,0.6560112833976746,-0.5578489899635315
1759865038638823400,10.665823486328126,1.745373010635376,0.6919242739677429,-0.3758896589279175
1759865038648894200,10.675894287109376,1.6208745241165161,0.7254431247711182,-0.26575639843940735
1759865038658965000,10.685965087890626,1.5945383310317993,0.5817909836769104,-0.15801730751991272
1759865038679045600,10.706045654296876,1.5658079385757446,0.31603461503982544,-0.14604631066322327
1759865038689147000,10.71614697265625,1.5682021379470825,0.3256114423274994,-0.1364694982767105
1759865038699217700,10.7262177734375,1.5753847360610962,0.21787235140800476,-0.17717093229293823
1759865038709319200,10.736319091796876,1.5538369417190552,0.17956513166427612,-0.16759411990642548
1759865038719390000,10.746389892578126,1.5179238319396973,-0.07661445438861847,-0.0454898327589035
1759865038729491200,10.7564912109375,1.6041151285171509,-0.14365209639072418,0.016759412363171577
1759865038739562000,10.76656201171875,1.5442601442337036,-0.07900865375995636,0.06703764945268631
1759865038749632800,10.7766328125,1.4245500564575195,-0.014365210197865963,0.24181437492370605
1759865038759703600,10.78670361328125,1.2832920551300049,-0.1867477297782898,0.2944868206977844
1759865038789946600,10.816946533203126,0.6703764796257019,-0.2106897532939911,0.6105214357376099
1759865038810118700,10.83711865234375,0.004788403399288654,-0.5363011956214905,1.2114660739898682
1759865038820220000,10.847219970703126,-0.33997663855552673,-0.9217676520347595,1.4987702369689941
1759865038830290700,10.857290771484376,-0.5123591423034668,-1.37906014919281,1.800439715385437
1759865038840331000,10.8673310546875,-0.7182605266571045,-1.8770540952682495,1.98958158493042
1759865038850401800,10.87740185546875,-0.8547300100326538,-2.0470423698425293,1.9584569931030273
1759865038860472600,10.88747265625,-0.9552865028381348,-1.699883222579956,1.9512743949890137
1759865038880583700,10.907583740234376,-0.8738836050033569,-1.3766659498214722,1.599326729774475
1759865038910826800,10.93782666015625,-0.7565677165985107,-1.1683704853057861,1.525106430053711
1759865038931029200,10.958029296875,-1.6184803247451782,-0.5506663918495178,1.6639702320098877
1759865038941100000,10.96810009765625,-2.1332337856292725,-0.019153613597154617,1.7262194156646729
1759865038951201500,10.978201416015626,-2.674323320388794,0.7015010714530945,1.7190368175506592
1759865038961272300,10.988272216796876,-3.1914708614349365,1.070208191871643,1.292868971824646
1759865038981414000,11.008413818359376,-3.179499864578247,0.9840168952941895,0.993593692779541
1759865038991515100,11.01851513671875,-2.8778305053710938,1.1252747774124146,0.9720458984375
1759865039001586000,11.0285859375,-2.738966703414917,1.0223240852355957,0.8140285611152649
1759865039011656700,11.03865673828125,-2.535459518432617,0.7230489253997803,0.6153098344802856
1759865039021697000,11.048697021484376,-2.3319525718688965,0.8762778043746948,0.29209262132644653
1759865039031798300,11.05879833984375,-1.9488801956176758,1.2665326595306396,-0.11971008777618408
1759865039041838600,11.068838623046876,-1.3694833517074585,1.8746598958969116,-0.4118026793003082
1759865039051939800,11.07893994140625,-0.9744400978088379,2.1787235736846924,-0.6272808313369751
1759865039062011000,11.089010986328125,-0.507570743560791,2.2194249629974365,-0.706289529800415
1759865039072112000,11.099112060546876,-0.08140286058187485,2.097320795059204,-0.6272808313369751
1759865039092284200,11.1192841796875,0.5650315880775452,1.0821791887283325,-0.5291185975074768
1759865039132536800,11.159536865234376,2.078166961669922,0.3495534360408783,-0.7589619159698486
1759865039142577200,11.1695771484375,2.3319525718688965,0.4165911078453064,-0.8595184087753296
1759865039152617500,11.179617431640626,2.561795711517334,0.4405331015586853,-0.8978256583213806
1759865039172759000,11.199759033203126,2.4205379486083984,0.22026655077934265,-0.6416460275650024
1759865039202941000,11.22994091796875,1.9967641830444336,0.17238251864910126,-0.40940847992897034
1759865039213011700,11.24001171875,1.9560627937316895,0.2777273952960968,-0.3447650372982025
1759865039223113000,11.250113037109376,1.6974890232086182,0.5937620401382446,-0.2992752194404602
1759865039233153300,11.2601533203125,1.3718775510787964,0.8571242094039917,-0.2298433631658554
1759865039243224000,11.27022412109375,1.3694833517074585,0.9576807022094727,-0.36152446269989014
1759865039253294800,11.280294921875,1.1755530834197998,0.9385270476341248,-0.38307225704193115
1759865039263396400,11.290396240234376,1.091755986213684,0.8259995579719543,-0.38546648621559143
1759865039293578200,11.320578125,0.5841852426528931,0.3902548849582672,0.05267243832349777
1759865039303649000,11.33064892578125,0.6368576288223267,0.30885201692581177,-0.06224924325942993
1759865039313658600,11.34065869140625,0.8643068075180054,0.3423708379268646,-0.05985504388809204
1759865039323760000,11.350760009765626,1.1300631761550903,0.3998316824436188,-0.22505496442317963
1759865039333831000,11.360830810546876,1.2545616626739502,0.26575639843940735,-0.043095629662275314
1759865039343871000,11.37087109375,1.2665326595306396,0.019153613597154617,0.2849099934101105
1759865039353942000,11.38094189453125,1.2832920551300049,-0.05746084079146385,0.646434485912323
1759865039363982000,11.390982177734376,1.0295066833496094,-0.40222588181495667,1.0773907899856567
1759865039394164000,11.4211640625,0.05267243832349777,-0.21308395266532898,2.626439332962036
1759865039404265500,11.431265380859376,-0.2944868206977844,-0.5027823448181152,2.7724854946136475
1759865039414336300,11.441336181640626,-0.6967126727104187,-0.7829039692878723,2.829946517944336
1759865039424407000,11.451406982421876,-1.0199298858642578,-0.8810662031173706,2.8227639198303223
1759865039434447400,11.461447265625,-1.048660397529602,-1.0127472877502441,2.4612393379211426
1759865039444548600,11.471548583984376,-1.0271124839782715,-1.070208191871643,2.032677173614502
1759865039454589000,11.4815888671875,-1.0534487962722778,-1.1061211824417114,1.745373010635376
1759865039464659700,11.49165966796875,-1.115697979927063,-1.0965443849563599,1.742978811264038
1759865039474761000,11.501760986328126,-1.3718775510787964,-1.2737152576446533,1.8076223134994507
1759865039515074800,11.54207470703125,-3.2561142444610596,-1.7956513166427612,1.0199298858642578
1759865039525145600,11.5521455078125,-3.4955344200134277,-1.7573440074920654,0.21547815203666687
1759865039535216400,11.56221630859375,-3.466804027557373,-1.5179238319396973,-0.5602431893348694
1759865039545287200,11.572287109375,-3.114856481552124,-1.4269442558288574,-1.048660397529602
1759865039555388400,11.582388427734376,-2.7030537128448486,-1.4413094520568848,-1.7046716213226318
1759865039565428700,11.5924287109375,-2.161964178085327,-1.7621324062347412,-2.1045033931732178
1759865039575499500,11.60249951171875,-1.8986018896102905,-2.2242133617401123,-2.343923568725586
1759865039585570300,11.6125703125,-1.5969325304031372,-2.3511061668395996,-2.47560453414917
1759865039615782700,11.64278271484375,-0.44771572947502136,-1.4867992401123047,-2.4612393379211426
1759865039625823000,11.652822998046876,-0.1843535304069519,-1.338358759880066,-2.1523873805999756
1759865039635893800,11.662893798828126,-0.0454898327589035,-1.0558429956436157,-1.8315643072128296
1759865039656035300,11.683035400390626,0.2777273952960968,-0.646434485912323,-1.1276689767837524
1759865039666075600,11.69307568359375,0.181959331035614,-0.30885201692581177,-0.7661445140838623
1759865039676146400,11.703146484375,0.3208230137825012,-0.1388636976480484,-0.4596867263317108
1759865039686217200,11.71321728515625,0.3926490843296051,-0.021547814831137657,-0.28969839215278625
1759865039696288000,11.7232880859375,0.49559974670410156,0.26336219906806946,-0.035913024097681046
1759865039706358800,11.73335888671875,0.5746083855628967,0.5506663918495178,-0.05027823522686958
1759865039726531000,11.753531005859376,0.9313444495201111,0.8930372595787048,-0.3232172429561615
1759865039736571400,11.7635712890625,1.1013327836990356,1.0007762908935547,-0.4908113479614258
1759865039746672600,11.773672607421876,1.2641384601593018,1.0965443849563599,-0.706289529800415
1759865039756713000,11.783712890625,1.4700398445129395,1.237802267074585,-0.7086837291717529
1759865039776854500,11.8038544921875,1.6352397203445435,1.0845733880996704,-0.768538773059845
1759865039786925300,11.81392529296875,1.659181833267212,0.9864110946655273,-0.5961562395095825
1759865039796965600,11.823965576171876,1.7741034030914307,0.8307880163192749,-0.4812345504760742
1759865039847319600,11.874319580078126,2.2170307636260986,0.8643068075180054,-0.2849099934101105
1759865039857390300,11.884390380859376,2.1547815799713135,0.9888052940368652,-0.21308395266532898
1759865039867461000,11.894461181640626,2.0374655723571777,1.0773907899856567,-0.14365209639072418
1759865039877562600,11.904562744140625,1.8411411046981812,1.1348515748977661,0.11971008777618408
1759865039887633400,11.91463330078125,1.6927006244659424,0.8690952062606812,0.44771572947502136
1759865039897704200,11.9247041015625,1.4508862495422363,0.5339069962501526,0.6967126727104187
1759865039907744500,11.93474462890625,1.3455413579940796,0.2537853717803955,1.1061211824417114
1759865039917845800,11.944845703125,1.2401964664459229,-0.021547814831137657,1.3934253454208374
1759865039948027600,11.975027587890626,0.5746083855628967,-0.5650315880775452,2.0015525817871094
1759865039958098400,11.985098388671876,0.19393034279346466,-0.5051765441894531,1.987187385559082
1759865039968169200,11.995169189453126,-0.14604631066322327,-0.545877993106842,1.9249382019042969
1759865039978240000,12.005239990234376,-0.43335050344467163,-0.8044517636299133,1.745373010635376
1759865039988280300,12.0152802734375,-0.6368576288223267,-1.0630255937576294,1.6855180263519287
1759865039998320600,12.025320556640626,-0.6751648783683777,-1.3623007535934448,1.7741034030914307
1759865040008391400,12.035391357421876,-0.7613561153411865,-1.6136919260025024,1.8171991109848022
1759865040038573300,12.0655732421875,-0.42856210470199585,-2.056619167327881,1.7980455160140991
1759865040048644000,12.07564404296875,-0.6871358752250671,-1.8914192914962769,2.056619167327881
1759865040058745300,12.085745361328126,-1.0007762908935547,-1.9847931861877441,2.183511972427368
1759865040068816100,12.095816162109376,-1.8076223134994507,-1.941697597503662,2.293645143508911
1759865040078887000,12.105886962890626,-2.4468741416931152,-1.6352397203445435,2.2888567447662354
1759865040088988400,12.115988525390625,-3.047818660736084,-1.2737152576446533,2.2146365642547607
1759865040099059200,12.12605908203125,-3.2968156337738037,-0.6488286852836609,1.8315643072128296
1759865040109130000,12.1361298828125,-3.181894063949585,-0.11013327538967133,1.0319008827209473
1759865040149443600,12.176443603515626,-1.2425906658172607,0.6512228846549988,-0.8930372595787048
1759865040159544800,12.186544921875,-1.0414776802062988,0.7589619159698486,-0.9481038451194763
1759865040169646300,12.196646240234376,-1.0558429956436157,1.0989385843276978,-0.8403648138046265
1759865040179717000,12.206717041015626,-1.1659762859344482,1.3072341680526733,-0.8236053586006165
1759865040189788000,12.216787841796876,-1.170764684677124,1.3239935636520386,-0.8140285611152649
1759865040199858700,12.226858642578126,-1.237802267074585,1.5873557329177856,-0.7541735172271729
1759865040209899000,12.23689892578125,-1.2497732639312744,1.6424223184585571,-0.6440402865409851
1759865040250182100,12.27718212890625,-0.15083470940589905,0.9840168952941895,-0.09816227108240128
1759865040260253000,12.2872529296875,0.12449848651885986,0.6775590777397156,-0.10055647045373917
1759865040270354200,12.297354248046876,0.36152446269989014,0.47165772318840027,-0.22026655077934265
1759865040280394500,12.30739453125,0.6607996821403503,0.2801215946674347,-0.33039984107017517
1759865040290495700,12.317495849609376,0.9600749015808105,0.22744916379451752,-0.44771572947502136
1759865040310637600,12.337637451171876,1.656787633895874,0.33279404044151306,-0.849941611289978
1759865040330748700,12.357748779296875,2.078166961669922,-0.3016694188117981,-0.6991068720817566
1759865040340819500,12.3678193359375,2.1356279850006104,-0.17477671802043915,-0.5961562395095825
1759865040350890200,12.37789013671875,2.2816741466522217,0.05027823522686958,-0.7326257228851318
1759865040360961000,12.3879609375,2.3104045391082764,0.12210428714752197,-0.5793967843055725
1759865040371031800,12.39803173828125,2.2649147510528564,0.2298433631658554,-0.6033388376235962
1759865040381102600,12.4081025390625,2.229001760482788,0.10773907601833344,-0.5793967843055725
1759865040391173400,12.41817333984375,2.1547815799713135,0.07900865375995636,-0.4620809257030487
1759865040401244200,12.428244140625,2.166752576828003,0.28730419278144836,-0.3208230137825012
1759865040411315000,12.43831494140625,1.9752163887023926,0.2825157940387726,-0.1173158809542656
1759865040421355300,12.448355224609376,1.8770540952682495,0.07182604819536209,0.11971008777618408
1759865040441436000,12.468435791015626,1.8387469053268433,-0.13168109953403473,0.33039984107017517
1759865040491820300,12.5188203125,1.479616641998291,-0.016759412363171577,0.9313444495201111
1759865040501860600,12.528860595703126,1.4293384552001953,-0.2561795711517334,1.1180921792984009
1759865040511961900,12.5389619140625,1.3551181554794312,-0.4644751250743866,1.41257905960083
1759865040542235400,12.5692353515625,0.8212111592292786,-0.6200982332229614,1.6352397203445435
1759865040552306200,12.57930615234375,0.47644615173339844,-0.6440402865409851,1.623268723487854
1759865040562346500,12.589346435546876,0.17956513166427612,-0.828393816947937,1.845929503440857
1759865040572447700,12.59944775390625,0,-1.0031704902648926,1.9297266006469727
1759865040582518500,12.6095185546875,-0.16519992053508759,-1.1037269830703735,2.0446481704711914
1759865040592589300,12.61958935546875,-0.3447650372982025,-1.048660397529602,1.9560627937316895
1759865040602690600,12.629690673828126,-0.47405192255973816,-1.1204863786697388,1.886630892753601
1759865040612761600,12.63976171875,-0.6272808313369751,-1.2186486721038818,1.742978811264038
1759865040622832400,12.649832275390626,-0.8475474119186401,-1.2306196689605713,1.7501614093780518
1759865040653044700,12.680044677734376,-1.764526605606079,-1.6927006244659424,2.0901381969451904
1759865040673155800,12.70015576171875,-2.38462495803833,-1.6927006244659424,1.7836803197860718
1759865040683226600,12.7102265625,-2.387019157409668,-1.7094600200653076,1.7693150043487549
1759865040693297400,12.72029736328125,-2.4636335372924805,-1.6136919260025024,1.0558429956436157
1759865040703398700,12.730398681640626,-2.367865562438965,-1.113303780555725,0.19871874153614044
1759865040713439000,12.74043896484375,-2.2218191623687744,-0.5003881454467773,-0.6560112833976746
1759865040723509800,12.750509765625,-2.0590133666992188,0.15562310814857483,-1.2761094570159912
1759865040743651300,12.7706513671875,-1.8531121015548706,-0.10055647045373917,-1.7573440074920654
1759865040753691600,12.780691650390626,-1.6687586307525635,-1.1037269830703735,-1.6136919260025024
1759865040763762400,12.790762451171876,-1.577778935432434,-1.3910311460494995,-1.7693150043487549
1759865040773833200,12.800833251953126,-1.37906014919281,-1.2425906658172607,-1.9967641830444336
1759865040783873500,12.81087353515625,-0.9241618514060974,-1.1180921792984009,-2.0685901641845703
1759865040793913900,12.820913818359376,-0.6392518281936646,-1.1492167711257935,-1.7070658206939697
1759865040804015000,12.83101513671875,-0.4118026793003082,-1.2210428714752197,-1.3623007535934448
1759865040814055400,12.841055419921876,-0.16998831927776337,-1.3192051649093628,-1.0869675874710083
1759865040824095700,12.851095703125,0.05027823522686958,-1.2473790645599365,-0.6823474764823914
1759865040834136000,12.861135986328126,0.24181437492370605,-1.0773907899856567,-0.4405331015586853
1759865040844237300,12.8712373046875,0.40222588181495667,-0.5961562395095825,-0.3734954595565796
1759865040854277600,12.881277587890626,0.751779317855835,0.028730420395731926,-0.4118026793003082
1759865040864348400,12.891348388671876,1.0678139925003052,0.5961562395095825,-0.5267243981361389
1759865040874358300,12.901358154296876,1.400607943534851,0.9672574996948242,-0.6224924325942993
1759865040884459500,12.91145947265625,1.5059528350830078,1.278503656387329,-0.8355764150619507
1759865040894499800,12.921499755859376,1.5849615335464478,1.599326729774475,-0.7422025203704834
1759865040904601000,12.93160107421875,1.7166426181793213,1.6112977266311646,-0.6991068720817566
1759865040914671900,12.941671875,1.6855180263519287,1.4317326545715332,-0.5722141861915588
1759865040924712200,12.951712158203126,1.6663644313812256,1.50355863571167,-0.272938996553421
1759865040934783000,12.961782958984376,1.6376339197158813,1.5634137392044067,-0.05746084079146385
1759865040975035600,13.00203564453125,1.4101848602294922,1.2665326595306396,0.07422025501728058
1759865040985106400,13.0121064453125,1.3910311460494995,0.8188169598579407,0.08619125932455063
1759865040995146800,13.022146728515626,1.3431471586227417,0.2968810200691223,-0.011971008032560349
1759865041005217500,13.032217529296876,1.1994950771331787,-0.009576806798577309,-0.14844051003456116
1759865041015288300,13.042288330078126,1.1252747774124146,-0.15562310814857483,-0.16519992053508759
1759865041025359000,13.052359130859376,1.1875240802764893,-0.2106897532939911,-0.272938996553421
1759865041035399400,13.0623994140625,1.0558429956436157,-0.44771572947502136,-0.31124621629714966
1759865041045500700,13.072500732421876,0.9409212470054626,-0.49320554733276367,-0.3016694188117981
1759865041065642200,13.092642333984376,0.6799532771110535,-0.4908113479614258,-0.10534487664699554
1759865041075713000,13.102713134765626,0.4908113479614258,-0.6009446382522583,0.11971008777618408
1759865041085814500,13.112814453125,0.29209262132644653,-0.7972691655158997,0.5027823448181152
1759865041095885300,13.12288525390625,0.1388636976480484,-1.0103530883789062,0.9050082564353943
1759865041105986600,13.132986572265626,-0.021547814831137657,-1.3192051649093628,1.3072341680526733
1759865041116057300,13.143057373046876,-0.26336219906806946,-1.6400281190872192,1.6855180263519287
1759865041126097700,13.15309765625,-0.6177040338516235,-1.7166426181793213,2.1715409755706787
1759865041136138000,13.163137939453126,-0.7326257228851318,-1.5849615335464478,2.3487119674682617
1759865041146178300,13.17317822265625,-0.646434485912323,-1.6304513216018677,2.2577321529388428
1759865041156249000,13.1832490234375,-0.5602431893348694,-1.5418659448623657,2.209848165512085
1759865041186431000,13.213430908203126,-0.3902548849582672,-1.1779472827911377,2.367865562438965
1759865041196471300,13.22347119140625,-0.5793967843055725,-0.993593692779541,2.6431987285614014
1759865041206603000,13.23360302734375,-0.9457096457481384,-0.5578489899635315,2.6671407222747803
1759865041216643300,13.243643310546876,-1.525106430053711,0.028730420395731926,2.7772738933563232
1759865041226744600,13.25374462890625,-2.432508945465088,0.8068459630012512,2.8371291160583496
1759865041236815400,13.2638154296875,-2.9688100814819336,1.1755530834197998,2.8107926845550537
1759865041246916900,13.273916748046876,-3.112462282180786,1.3239935636520386,2.363077163696289
1759865041256987600,13.283987548828126,-2.918531894683838,1.41257905960083,1.414973258972168
1759865041297301200,13.32430126953125,-0.8930372595787048,1.7381904125213623,-0.6057330369949341
1759865041307372000,13.3343720703125,-0.8379706144332886,2.0374655723571777,-0.44532153010368347
1759865041317473300,13.344473388671876,-0.849941611289978,2.145204782485962,-0.45489832758903503
1759865041327544300,13.35454443359375,-0.8643068075180054,1.9536685943603516,-0.43095630407333374
1759865041337584400,13.36458447265625,-0.8786720037460327,1.5897499322891235,-0.3878606855869293
1759865041347624700,13.374624755859376,-0.828393816947937,1.4245500564575195,-0.2968810200691223
1759865041357695500,13.384695556640626,-0.6727706789970398,1.1683704853057861,-0.2059013396501541
1759865041367797000,13.394796875,-0.38307225704193115,0.9433154463768005,-0.14365209639072418
1759865041397979000,13.424978759765626,0.42377370595932007,0.15322890877723694,-0.5554547905921936
1759865041408049700,13.435049560546876,0.6871358752250671,0.3208230137825012,-0.7781155705451965
1759865041418151000,13.44515087890625,1.0654197931289673,0.47165772318840027,-1.0558429956436157
1759865041428221700,13.4552216796875,1.2665326595306396,0.33039984107017517,-1.0869675874710083
1759865041438323000,13.465322998046876,1.5083470344543457,0.18914192914962769,-1.1180921792984009
1759865041448424400,13.475424560546875,1.7142484188079834,0.08379705995321274,-1.1276689767837524
1759865041458495200,13.4854951171875,1.8124107122421265,0.040701430290937424,-1.2186486721038818
1759865041488738000,13.515738037109376,2.056619167327881,0.14365209639072418,-0.9768342971801758
1759865041498808800,13.525808837890626,2.1045033931732178,0.22026655077934265,-0.8212111592292786
1759865041508910000,13.53591015625,2.1475989818573,0.2849099934101105,-0.790086567401886
1759865041518980900,13.54598095703125,2.1308395862579346,0.363918662071228,-0.6727706789970398
1759865041529051600,13.5560517578125,1.9584569931030273,0.4596867263317108,-0.47644615173339844
1759865041539153200,13.566153076171876,1.8722656965255737,0.45010992884635925,-0.17238251864910126
1759865041549224000,13.576223876953126,1.7286136150360107,0.33518823981285095,-0.023942016065120697
1759865041559294700,13.586294677734376,1.766920804977417,0.33518823981285095,0.19871874153614044
1759865041589507000,13.616507080078126,1.8076223134994507,0.48602294921875,0.9097966551780701
1759865041599577900,13.626577880859376,1.7980455160140991,0.4572925269603729,1.170764684677124
1759865041609679000,13.63667919921875,1.6376339197158813,0.45010992884635925,1.4508862495422363
1759865041619750000,13.64675,1.4317326545715332,0.3663128614425659,1.7357962131500244
1759865041629821000,13.656821044921875,1.1492167711257935,0.2825157940387726,1.9249382019042969
1759865041639891700,13.6668916015625,0.7733271718025208,0.22026655077934265,2.185906171798706
1759865041649931800,13.676931884765626,0.4908113479614258,-0.0933738648891449,2.1380221843719482
1759865041660033300,13.687033203125,0.1843535304069519,-0.40222588181495667,2.1978771686553955
1759865041700286000,13.727285888671876,-0.5027823448181152,-1.764526605606079,2.557007312774658
1759865041730498300,13.757498291015626,-0.7613561153411865,-2.1068975925445557,2.027888774871826
1759865041740538600,13.76753857421875,-0.7493851184844971,-2.0231003761291504,1.6304513216018677
1759865041750579000,13.777578857421876,-0.7493851184844971,-2.1547815799713135,1.2497732639312744
1759865041760619300,13.787619384765625,-0.8259995579719543,-2.1523873805999756,1.2258312702178955
1759865041770690000,13.79768994140625,-0.9720458984375,-2.094926595687866,1.403002142906189
1759865041790801200,13.81780126953125,-1.5083470344543457,-2.0853497982025146,1.5969325304031372
1759865041800902400,13.82790234375,-1.886630892753601,-1.8842366933822632,0.8571242094039917
1759865041810973200,13.83797314453125,-1.644816517829895,-1.41257905960083,0.07900865375995636
1759865041821044000,13.8480439453125,-1.5298948287963867,-0.7445967197418213,-0.8475474119186401
1759865041831145200,13.858145263671876,-1.6304513216018677,-0.16998831927776337,-1.501164436340332
1759865041841185500,13.868185546875,-1.6160861253738403,0.08140286058187485,-1.946485996246338
1759865041851286800,13.878286865234376,-1.7190368175506592,-0.07900865375995636,-2.2601263523101807
1759865041861357600,13.888357666015626,-1.6639702320098877,-1.0342950820922852,-2.078166961669922
1759865041901610200,13.9286103515625,-2.056619167327881,-1.9177556037902832,-1.1994950771331787
1759865041911711700,13.938711669921876,-2.030282974243164,-1.680729627609253,-0.9193734526634216
1759865041921782500,13.948782470703126,-1.8171991109848022,-1.2880805730819702,-0.828393816947937
1759865041931853300,13.958853271484376,-1.4748282432556152,-1.2258312702178955,-0.751779317855835
1759865041941954600,13.96895458984375,-1.0965443849563599,-1.1013327836990356,-0.6512228846549988
1759865041951995000,13.978994873046876,-0.689530074596405,-0.8643068075180054,-0.4572925269603729
1759865041962035200,13.98903515625,-0.2298433631658554,-0.5027823448181152,-0.3734954595565796
1759865041972106000,13.99910595703125,0.19871874153614044,-0.1604115068912506,-0.4692635238170624
1759865042002287900,14.029287841796876,1.0247182846069336,0.7733271718025208,-0.8379706144332886
1759865042022460000,14.0494599609375,1.3527239561080933,0.7565677165985107,-1.0199298858642578
1759865042032530700,14.05953076171875,1.4987702369689941,0.7086837291717529,-1.072602391242981
1759865042052672300,14.07967236328125,1.41257905960083,0.3423708379268646,-0.9217676520347595
1759865042062743300,14.089743408203125,1.4867992401123047,0.1867477297782898,-0.8954314589500427
1759865042092955600,14.11995556640625,1.7549498081207275,-0.031124621629714966,-0.8475474119186401
1759865042102996000,14.129995849609376,1.8291701078414917,-0.11971008777618408,-0.8930372595787048
1759865042113097200,14.14009716796875,1.845929503440857,-0.07422025501728058,-0.8259995579719543
1759865042123198500,14.150198486328126,1.7262194156646729,-0.19632454216480255,-0.8427590131759644
1759865042133269200,14.160269287109376,1.7262194156646729,-0.0454898327589035,-0.849941611289978
1759865042143340000,14.170340087890626,1.6496049165725708,0.06703764945268631,-0.7206547260284424
1759865042153410800,14.180410888671876,1.6304513216018677,0.12689268589019775,-0.6799532771110535
1759865042163451100,14.190451171875,1.601720929145813,0.16519992053508759,-0.6823474764823914
1759865042173522000,14.20052197265625,1.625662922859192,-0.0071826050989329815,-0.7565677165985107
1759865042234038300,14.261038330078126,0.5793967843055725,-0.4141969084739685,0.689530074596405
1759865042244139800,14.271139892578125,0.6224924325942993,-0.6584054827690125,1.015141487121582
1759865042254241000,14.281240966796876,0.6536170840263367,-0.9768342971801758,1.213860273361206
1759865042264281300,14.29128125,0.5339069962501526,-1.3000515699386597,1.482010841369629
1759865042274352000,14.30135205078125,0.23702596127986908,-1.6280571222305298,1.6376339197158813
1759865042314727000,14.341726806640626,-0.586579442024231,-2.7533318996429443,2.58813214302063
1759865042324767000,14.35176708984375,-0.5123591423034668,-2.8993782997131348,2.5546131134033203
1759865042334868500,14.361868408203126,-0.629675030708313,-2.8610711097717285,2.4468741416931152
1759865042344939300,14.371939208984376,-1.094150185585022,-2.604891538619995,2.4684219360351562
1759865042354979600,14.3819794921875,-1.802833914756775,-1.8914192914962769,1.9991583824157715
1759865042365080800,14.392080810546876,-2.5091233253479004,-0.8690952062606812,1.7262194156646729
1759865042375151600,14.402151611328126,-2.894589900970459,0.0454898327589035,1.2641384601593018
1759865042385252900,14.4122529296875,-2.7892448902130127,0.6344634294509888,0.9026140570640564
1759865042445616600,14.47261669921875,-1.3048399686813354,0.8236053586006165,-0.4884171485900879
1759865042455687400,14.4826875,-1.7046716213226318,0.7924807667732239,-0.395043283700943
1759865042475737600,14.502737548828126,-1.7286136150360107,1.1324573755264282,-0.21308395266532898
1759865042485838800,14.5128388671875,-1.4867992401123047,1.0582371950149536,-0.304063618183136
1759865042495940000,14.522940185546876,-1.1228805780410767,0.8259995579719543,-0.3926490843296051
1759865042505980400,14.53298046875,-0.8690952062606812,0.7781155705451965,-0.30885201692581177
1759865042536223500,14.563223388671876,0.2849099934101105,0.15801730751991272,-0.9768342971801758
1759865042546324700,14.57332470703125,0.8307880163192749,0.07661445438861847,-1.1252747774124146
1759865042566466300,14.59346630859375,1.3335703611373901,0.019153613597154617,-1.1444283723831177
1759865042576567600,14.603567626953126,1.5610195398330688,0.22026655077934265,-1.314416766166687
1759865042586638300,14.613638427734376,1.9105730056762695,0.3519476354122162,-1.2617442607879639
1759865042596678700,14.6236787109375,1.9943699836730957,0.5386953949928284,-1.2497732639312744
1759865042606780200,14.6337802734375,2.03507137298584,0.569819986820221,-1.1252747774124146
1759865042637023000,14.66402294921875,1.900996208190918,0.6105214357376099,-0.44532153010368347
1759865042657225500,14.6842255859375,1.944091796875,0.5722141861915588,-0.3902548849582672
1759865042667265800,14.694265869140626,1.968033790588379,0.5602431893348694,-0.3758896589279175
1759865042677306000,14.70430615234375,2.1284453868865967,0.5482721924781799,-0.304063618183136
1759865042687377000,14.714376953125,2.10210919380188,0.395043283700943,-0.4429273009300232
1759865042697447700,14.72444775390625,2.367865562438965,0.2106897532939911,-0.7422025203704834
1759865042707518500,14.7345185546875,2.2242133617401123,0.004788403399288654,-0.5985504388809204
1759865042747862800,14.77486279296875,1.599326729774475,-0.11252748221158981,0.3902548849582672
1759865042757903000,14.784903076171876,1.6496049165725708,-0.08379705995321274,0.6799532771110535
1759865042767974000,14.794973876953126,1.3455413579940796,-0.12210428714752197,0.7805097699165344
1759865042778014200,14.80501416015625,1.4197616577148438,-0.20350714027881622,1.0989385843276978
1759865042788085000,14.8150849609375,1.1109095811843872,-0.24420857429504395,1.381454348564148
1759865042798094800,14.8250947265625,1.048660397529602,-0.2082955539226532,1.6927006244659424
1759865042808196000,14.835196044921876,0.24899697303771973,-0.40462008118629456,2.078166961669922
1759865042848479200,14.875479248046876,-1.216254472732544,-1.259350061416626,2.4157495498657227
1759865042858580500,14.88558056640625,-0.9816226959228516,-1.2545616626739502,2.054224967956543
1759865042868651300,14.8956513671875,-1.2425906658172607,-1.192312479019165,1.8124107122421265
1759865042888793000,14.91579296875,-1.338358759880066,-1.4891934394836426,1.9584569931030273
1759865042898863900,14.92586376953125,-1.41257905960083,-1.7980455160140991,2.1356279850006104
1759865042908965000,14.935965087890626,-1.4484920501708984,-2.2625205516815186,2.3343467712402344
1759865042939177500,14.966177490234376,-1.7884687185287476,-2.434903144836426,1.3048399686813354
1759865042949248300,14.976248291015626,-1.5969325304031372,-2.276885747909546,0.5985504388809204
1759865042959219200,14.98621923828125,-1.4915876388549805,-1.37906014919281,-0.10055647045373917
1759865042969290000,14.9962900390625,-1.5682021379470825,-0.6991068720817566,-0.6919242739677429
1759865042979391200,15.00639111328125,-1.6950948238372803,-0.3208230137825012,-0.8619126081466675
1759865042989462000,15.0164619140625,-1.821987509727478,-0.8619126081466675,-0.6153098344802856
1759865043009634000,15.036634033203125,-1.656787633895874,-1.3479355573654175,-0.7781155705451965
1759865043019735600,15.046735595703124,-1.6735470294952393,-0.993593692779541,-1.2282254695892334
1759865043060049200,15.087049072265625,-0.002394201699644327,-0.5674257874488831,-1.577778935432434
1759865043070150400,15.097150390625,0.26336219906806946,-0.45250412821769714,-1.3551181554794312
1759865043080252000,15.107251953125,0.3495534360408783,-0.48602294921875,-0.9911994934082031
1759865043090322700,15.11732275390625,0.4884171485900879,-0.2537853717803955,-0.7350199222564697
1759865043100393500,15.1273935546875,0.828393816947937,-0.17956513166427612,-0.7182605266571045
1759865043110433800,15.137433837890624,1.115697979927063,-0.11013327538967133,-0.7134721279144287
1759865043130575400,15.157575439453124,1.3072341680526733,0.8619126081466675,-0.8523358106613159
1759865043160848600,15.1878486328125,2.126051187515259,0.9074024558067322,-1.2856862545013428
1759865043170919400,15.19791943359375,2.1380221843719482,0.8978256583213806,-1.280897855758667
1759865043181021000,15.20802099609375,2.1475989818573,1.1204863786697388,-1.2880805730819702
1759865043191091700,15.218091796875,2.161964178085327,1.137245774269104,-1.091755986213684
1759865043201132000,15.228132080078124,2.1739351749420166,1.213860273361206,-0.9792284965515137
1759865043211202800,15.238202880859374,2.1571757793426514,1.0869675874710083,-0.8451532125473022
1759865043231344400,15.258344482421874,2.1308395862579346,0.629675030708313,-0.40940847992897034
1759865043241445600,15.268445556640625,2.0901381969451904,0.2968810200691223,-0.12689268589019775
1759865043261617700,15.28861767578125,2.056619167327881,-0.15801730751991272,0.19632454216480255
1759865043271688700,15.298688720703124,2.0039467811584473,-0.2777273952960968,0.2059013396501541
1759865043281759500,15.308759521484374,1.8794482946395874,-0.4596867263317108,0.3280056416988373
1759865043291830300,15.318830322265624,1.6831238269805908,-0.629675030708313,0.42856210470199585
1759865043301870600,15.32887060546875,1.4652514457702637,-0.9241618514060974,0.5770025849342346
1759865043311971800,15.338971923828124,1.2210428714752197,-0.9552865028381348,0.608127236366272
1759865043322073000,15.349072998046875,0.9169792532920837,-0.9864110946655273,0.7829039692878723
1759865043332143900,15.359143798828125,0.6655880808830261,-1.0606313943862915,0.9576807022094727
1759865043342214700,15.369214599609375,0.42377370595932007,-1.1563993692398071,1.1851298809051514
1759865043372427000,15.399427001953125,-0.40940847992897034,-1.2689268589019775,1.9584569931030273
1759865043382497800,15.409497802734375,-0.7469909191131592,-1.213860273361206,2.229001760482788
1759865043392538000,15.4195380859375,-0.849941611289978,-1.280897855758667,2.3511061668395996
1759865043402609000,15.42960888671875,-0.7445967197418213,-1.6855180263519287,2.513911724090576
1759865043412679700,15.4396796875,-0.4357447028160095,-1.8100165128707886,2.1308395862579346
1759865043432852000,15.45985205078125,-0.24181437492370605,-1.0271124839782715,1.9991583824157715
1759865043452993500,15.47999365234375,-1.0558429956436157,-0.7445967197418213,2.2409727573394775
1759865043493276700,15.520276611328125,-2.6575639247894287,0.7805097699165344,0.6799532771110535
1759865043513449000,15.540448974609374,-1.6950948238372803,1.4676456451416016,-0.33997663855552673
1759865043523519700,15.550519775390624,-1.316810965538025,1.5897499322891235,-0.49799394607543945
1759865043533621000,15.56062109375,-1.1971008777618408,1.2761094570159912,-0.5123591423034668
1759865043543691800,15.57069189453125,-1.194706678390503,1.1444283723831177,-0.43335050344467163
1759865043553732000,15.580732177734374,-1.3335703611373901,1.0845733880996704,-0.3280056416988373
1759865043563863800,15.59086376953125,-1.3311761617660522,1.158793568611145,-0.42856210470199585
1759865043573904100,15.600904052734375,-1.3527239561080933,1.3551181554794312,-0.3926490843296051
1759865043594015200,15.62101513671875,-0.9720458984375,1.482010841369629,-0.06703764945268631
1759865043604116500,15.631116455078125,-0.8643068075180054,1.1013327836990356,0.1388636976480484
1759865043614187300,15.641187255859375,-0.6703764796257019,0.7757213711738586,0.3663128614425659
1759865043624288800,15.651288818359374,-0.5123591423034668,0.5027823448181152,0.37828385829925537
1759865043634359600,15.661359619140624,-0.13168109953403473,0.17956513166427612,0.19393034279346466
1759865043644399900,15.67139990234375,0.21308395266532898,0.13168109953403473,-0.019153613597154617
1759865043654470700,15.681470703125,0.7398083209991455,0.20350714027881622,-0.22266076505184174
1759865043664541400,15.69154150390625,1.01753568649292,0.3280056416988373,-0.43335050344467163
1759865043704855000,15.73185498046875,1.6711528301239014,0.5722141861915588,-0.8595184087753296
1759865043714925800,15.74192578125,1.6400281190872192,0.5363011956214905,-0.8619126081466675
1759865043735098000,15.76209814453125,1.6519991159439087,0.2992752194404602,-0.7374141216278076
1759865043745199400,15.772199462890624,1.6855180263519287,0.08619125932455063,-0.7996633648872375
1759865043755239700,15.78223974609375,1.745373010635376,-0.1173158809542656,-0.8068459630012512
1759865043765249300,15.792249267578125,1.680729627609253,-0.3208230137825012,-0.7541735172271729
1759865043795462000,15.8224619140625,1.5825673341751099,0.2777273952960968,-0.19871874153614044
1759865043805532700,15.83253271484375,1.656787633895874,0.3280056416988373,-0.19632454216480255
1759865043815603500,15.842603515625,1.824381709098816,0.19632454216480255,-0.3423708379268646
1759865043825643800,15.852643798828124,2.0015525817871094,-0.12928688526153564,-0.22505496442317963
1759865043835714600,15.862714599609374,1.8531121015548706,-0.3471592366695404,0.05027823522686958
1759865043845785300,15.872785400390624,2.3487119674682617,-0.031124621629714966,0.1843535304069519
1759865043855856000,15.882856201171874,1.556231141090393,0.44771572947502136,0.3663128614425659
1759865043865957400,15.892957275390625,1.4293384552001953,0.4836287498474121,0.811634361743927
1759865043875967200,15.90296728515625,1.0678139925003052,0.18914192914962769,1.2066776752471924
1759865043906179600,15.9331796875,0.5889736413955688,-0.4213795065879822,1.6519991159439087
1759865043916158700,15.94315869140625,0.3423708379268646,-0.6392518281936646,1.9608511924743652
1759865043926260200,15.95326025390625,-0.026336219161748886,-0.8523358106613159,2.1571757793426514
1759865043936331000,15.9633310546875,-0.13168109953403473,-1.094150185585022,2.3750481605529785
1759865043946401800,15.97340185546875,-0.06464344263076782,-1.0223240852355957,2.1547815799713135
1759865043956411400,15.983411376953125,-0.09816227108240128,-1.2617442607879639,1.6879122257232666
1759865043966513000,15.993512939453124,-0.2753331959247589,-1.3670891523361206,1.3000515699386597
1759865043976614100,16.0036142578125,-0.1149216815829277,-1.3407529592514038,1.3958195447921753
1759865044016927700,16.043927734375,-1.1683704853057861,-2.1715409755706787,2.5091233253479004
1759865044057180400,16.084180419921875,-1.5514427423477173,-0.1412578970193863,0.3232172429561615
1759865044067282000,16.094281982421876,-1.8076223134994507,-0.6991068720817566,0.507570743560791
1759865044077322200,16.104322265625,-2.276885747909546,-1.335964560508728,0.24660277366638184
1759865044087423500,16.114423583984376,-2.3271639347076416,-2.0207061767578125,0.07422025501728058
1759865044097494300,16.124494384765626,-2.2385785579681396,-2.250549554824829,-0.35434186458587646
1759865044107595500,16.134595458984375,-1.7262194156646729,-2.073378562927246,-0.7422025203704834
1759865044117605400,16.14460546875,-0.8523358106613159,-1.7357962131500244,-1.1228805780410767
1759865044127706600,16.15470654296875,-0.12449848651885986,-1.6065093278884888,-1.2473790645599365
1759865044137777400,16.16477734375,0.40462008118629456,-1.290474772453308,-1.4197616577148438
1759865044147848200,16.17484814453125,0.4572925269603729,-1.1875240802764893,-1.3455413579940796
1759865044157888500,16.184888427734375,0.5410895943641663,-1.015141487121582,-0.9840168952941895
1759865044167989800,16.19498974609375,0.5770025849342346,-0.9289502501487732,-0.9097966551780701
1759865044178030000,16.205030029296875,0.3232172429561615,-0.7541735172271729,-0.6775590777397156
1759865044238485500,16.265485595703126,1.3192051649093628,0.45010992884635925,-0.5770025849342346
1759865044258596600,16.2855966796875,1.7262194156646729,-0.4836287498474121,-0.3998316824436188
1759865044268637000,16.295636962890626,1.7525556087493896,-0.5027823448181152,-0.33758243918418884
1759865044278707700,16.305707763671876,1.50355863571167,-0.2992752194404602,-0.21787235140800476
1759865044318990800,16.345990966796876,1.048660397529602,0.768538773059845,0.019153613597154617
1759865044329092000,16.356092041015625,1.1899182796478271,0.6488286852836609,0.2106897532939911
1759865044339163000,16.366162841796875,1.235408067703247,0.5003881454467773,0.49799394607543945
1759865044349203200,16.376203125,1.2090718746185303,0.5339069962501526,0.4572925269603729
1759865044359304400,16.386304443359375,0.9624691009521484,0.5291185975074768,0.5003881454467773
1759865044369375200,16.396375244140625,0.5339069962501526,0.35913026332855225,0.44532153010368347
1759865044379446300,16.4064462890625,0.2537853717803955,0.15083470940589905,0.29209262132644653
1759865044389517000,16.41651708984375,0.040701430290937424,-0.1867477297782898,0.33997663855552673
1759865044419668200,16.446668212890625,0.16998831927776337,-0.49799394607543945,0.21787235140800476
1759865044439810000,16.46681005859375,-0.7661445140838623,-0.5650315880775452,0.15801730751991272
1759865044449880800,16.476880859375,-0.9026140570640564,-0.6320692300796509,0.2825157940387726
1759865044459921000,16.4869208984375,-1.2210428714752197,-0.7876923680305481,0.33039984107017517
1759865044470022400,16.4970224609375,-1.2617442607879639,-0.7398083209991455,0.4118026793003082
1759865044480062700,16.507062744140626,-1.2258312702178955,-0.8547300100326538,0.5363011956214905
1759865044490133500,16.517133544921876,-1.2976573705673218,-0.7781155705451965,0.7326257228851318
1759865044530416600,16.557416748046876,-1.5729905366897583,-0.5961562395095825,0.9074024558067322
1759865044540487400,16.5674873046875,-2.1595699787139893,-0.6224924325942993,0.9983820915222168
1759865044550527700,16.57752783203125,-2.631227731704712,-0.8212111592292786,1.0414776802062988
1759865044560598500,16.5875986328125,-3.114856481552124,-1.091755986213684,0.768538773059845
1759865044570638800,16.597638916015626,-3.3207578659057617,-1.1300631761550903,0.24181437492370605
1759865044590780400,16.617780517578126,-2.449268341064453,-0.5674257874488831,-0.5602431893348694
1759865044621023200,16.648023193359375,-2.0470423698425293,-0.002394201699644327,-0.5626373887062073
1759865044631094000,16.658093994140625,-2.2433669567108154,0.07422025501728058,-0.2849099934101105
1759865044641164800,16.668164794921875,-2.0661959648132324,0.3734954595565796,-0.2944868206977844
1759865044651235600,16.678235595703125,-2.075772762298584,0.395043283700943,-0.2825157940387726
1759865044661306600,16.688306640625,-2.078166961669922,0.6943184733390808,-0.3447650372982025
1759865044671377400,16.69837744140625,-1.8914192914962769,0.8810662031173706,-0.33039984107017517
1759865044681448200,16.7084482421875,-1.778891921043396,1.137245774269104,-0.3280056416988373
1759865044691488500,16.718488525390626,-1.5179238319396973,1.2090718746185303,-0.31603461503982544
1759865044711691000,16.73869091796875,-1.0630255937576294,0.9983820915222168,-0.15801730751991272
1759865044731863000,16.758863037109375,-0.1149216815829277,0.7829039692878723,-0.6224924325942993
1759865044741964500,16.768964599609376,0.4836287498474121,0.7422025203704834,-0.667982280254364
1759865044772207400,16.799207275390625,1.742978811264038,0.9265560507774353,-0.9864110946655273
1759865044782308600,16.80930859375,1.9033904075622559,0.8954314589500427,-0.9744400978088379
1759865044792410000,16.81941015625,1.821987509727478,0.828393816947937,-0.7326257228851318
1759865044812521200,16.839521240234376,1.577778935432434,0.7972691655158997,-0.47644615173339844
1759865044832662800,16.859662841796876,1.534683346748352,0.8906430602073669,-0.5027823448181152
1759865044842733600,16.869733642578126,1.6112977266311646,0.9457096457481384,-0.5961562395095825
1759865044852804400,16.879804443359376,1.6927006244659424,0.8643068075180054,-0.5722141861915588
1759865044862844700,16.8898447265625,1.7812861204147339,0.6512228846549988,-0.44532153010368347
1759865044872946000,16.89994580078125,1.8363527059555054,0.363918662071228,-0.2825157940387726
1759865044883047200,16.910047119140625,1.9512743949890137,-0.026336219161748886,-0.11252748221158981
1759865044893118000,16.920117919921875,1.889025092124939,-0.40940847992897034,0.0071826050989329815
1759865044903188700,16.930188720703125,1.9033904075622559,-0.3016694188117981,0.15562310814857483
1759865044913290200,16.940290283203126,1.8267759084701538,-0.40222588181495667,0.3902548849582672
1759865044943502600,16.970502685546876,1.1324573755264282,-0.2082955539226532,0.26096799969673157
1759865044953573400,16.980573486328126,1.072602391242981,-0.07422025501728058,0.45250412821769714
1759865044963674600,16.990674560546875,0.10055647045373917,0.4165911078453064,0.6057330369949341
1759865044973776000,17.00077587890625,0.09576806426048279,1.0821791887283325,0.42616790533065796
1759865044983847000,17.010846923828126,-0.06464344263076782,0.7110779285430908,1.0007762908935547
1759865044993887000,17.020886962890625,-0.0071826050989329815,-0.42616790533065796,0.9552865028381348
1759865045003988500,17.030988525390626,0.42377370595932007,-1.1803414821624756,0.5506663918495178
1759865045024160500,17.051160400390625,0.35434186458587646,-1.5298948287963867,0.871489405632019
1759865045044302000,17.071302001953125,0.1867477297782898,0.5602431893348694,0.33997663855552673
1759865045054372900,17.081372802734375,-0.6344634294509888,-0.2082955539226532,0.6703764796257019
1759865045064474000,17.09147412109375,-0.4692635238170624,-0.42616790533065796,1.8507179021835327
1759865045074545200,17.101545166015626,-1.0247182846069336,-1.1061211824417114,2.9089550971984863
1759865045084585200,17.111585205078125,-2.0590133666992188,-1.1994950771331787,0.16519992053508759
1759865045094625500,17.12162548828125,-0.8092401623725891,-1.7836803197860718,3.1292216777801514
1759865045104696300,17.1316962890625,-1.625662922859192,-1.9943699836730957,2.118868589401245
1759865045114767000,17.14176708984375,-0.9672574996948242,-1.6041151285171509,0.047884032130241394
1759865045134847700,17.16184765625,-1.2330138683319092,-1.0271124839782715,-3.2800562381744385
1759865045155050500,17.182050537109376,-2.456450939178467,0.6344634294509888,4.757278919219971
1759865045165121300,17.192121337890626,-2.3942017555236816,0.751779317855835,4.888959884643555
1759865045175222500,17.202222412109375,-2.5330653190612793,-1.482010841369629,1.434126853942871
1759865045185293300,17.212293212890625,-0.5434837937355042,-2.9041666984558105,-0.5937620401382446
1759865045195364000,17.222364013671875,-0.8523358106613159,-2.5905263423919678,-0.6536170840263367
1759865045205435000,17.232434814453125,-1.6711528301239014,-1.9752163887023926,-0.8954314589500427
1759865045245748700,17.272748779296876,0.0694318488240242,-1.5849615335464478,0.4213795065879822
1759865045255788800,17.282788818359375,1.1803414821624756,-2.032677173614502,0
1759865045265859800,17.29285986328125,-0.7254431247711182,-0.7852981686592102,-1.7094600200653076
1759865045286001400,17.31300146484375,0.26575639843940735,-1.4101848602294922,2.121262788772583
1759865045296072200,17.323072265625,-0.6560112833976746,0.15562310814857483,-1.7286136150360107
1759865045346487300,17.3734873046875,0.9481038451194763,0.7661445140838623,-2.341529369354248
1759865045356558000,17.38355810546875,1.036689281463623,0.21547815203666687,-0.2944868206977844
1759865045366628900,17.39362890625,1.53707754611969,-0.0071826050989329815,-0.8738836050033569
1759865045376669000,17.4036689453125,1.0199298858642578,-0.0454898327589035,-0.07661445438861847
1759865045386709200,17.413709228515625,0.6703764796257019,-5.200206279754639,12.155362129211426
1759865045396780000,17.423780029296875,1.8507179021835327,2.6599581241607666,-7.671022415161133
1759865045406850800,17.433850830078125,0.7781155705451965,2.0015525817871094,1.45806884765625
1759865045416891100,17.44389111328125,0.11971008777618408,1.6376339197158813,-2.1116859912872314
1759865045457235500,17.4842353515625,1.3455413579940796,-1.0079588890075684,1.091755986213684
1759865045467306200,17.49430615234375,0.9648633003234863,0.4884171485900879,-0.17717093229293823
1759865045477346600,17.5043466796875,0.6703764796257019,0.7637503147125244,0.5291185975074768
1759865045487417300,17.514417236328125,0.7350199222564697,-1.5682021379470825,4.410119533538818
1759865045497488100,17.524488037109375,0.7852981686592102,0.7086837291717529,-1.5538369417190552
1759865045507559000,17.534558837890625,-0.19871874153614044,-0.727837324142456,1.7812861204147339
1759865045517599200,17.54459912109375,0.2082955539226532,-1.3335703611373901,1.1228805780410767
1759865045557912800,17.584912841796875,-0.8643068075180054,-1.5825673341751099,2.940079689025879
1759865045567983900,17.59498388671875,-1.280897855758667,-1.8100165128707886,1.8339585065841675
1759865045578085000,17.605085205078126,-1.4891934394836426,-2.0805611610412598,2.1284453868865967
1759865045588156000,17.615156005859376,-1.3718775510787964,-2.2146365642547607,2.164358377456665
1759865045598196200,17.6251962890625,-1.2521674633026123,-1.6759412288665771,2.169146776199341
1759865045608297500,17.63529736328125,-1.3048399686813354,-1.5634137392044067,2.118868589401245
1759865045618368300,17.6453681640625,-1.338358759880066,-1.5729905366897583,2.1739351749420166
1759865045628439000,17.65543896484375,-1.6855180263519287,-1.656787633895874,2.3056161403656006
1759865045658621000,17.685620849609375,-2.365471363067627,-1.50355863571167,1.7046716213226318
1759865045678762500,17.705762451171875,-1.9943699836730957,-0.44771572947502136,0.6057330369949341
1759865045688833300,17.715833251953125,-1.534683346748352,0.10773907601833344,0.44771572947502136
1759865045698904000,17.725904052734375,-1.8555063009262085,0.9433154463768005,0.08858546614646912
1759865045708944400,17.7359443359375,-2.0183119773864746,1.7477672100067139,-0.2944868206977844
1759865045719015200,17.74601513671875,-2.341529369354248,2.142810583114624,-0.4836287498474121
1759865045729116700,17.75611669921875,-2.542642116546631,2.1356279850006104,-1.161187767982483
1759865045749319200,17.776319091796875,-1.5849615335464478,1.115697979927063,-0.33039984107017517
1759865045789602300,17.816602294921875,-0.40462008118629456,0.5291185975074768,-0.9911994934082031
1759865045799703800,17.826703857421876,-0.28969839215278625,0.35673606395721436,-0.8427590131759644
1759865045809774600,17.836774658203126,0.014365210197865963,0.016759412363171577,-0.811634361743927
1759865045819875800,17.846875732421875,0.19393034279346466,-0.023942016065120697,-0.7757213711738586
1759865045829946600,17.856946533203125,0.7829039692878723,-0.040701430290937424,-0.7326257228851318
1759865045839987000,17.866987060546876,1.0893617868423462,0.12210428714752197,-0.9289502501487732
1759865045870229800,17.897229736328125,1.525106430053711,0.7015010714530945,-1.2066776752471924
1759865045880300500,17.907300537109375,1.4101848602294922,0.9169792532920837,-1.1755530834197998
1759865045890371300,17.917371337890625,1.3239935636520386,0.8690952062606812,-1.0582371950149536
1759865045900442400,17.9274423828125,1.335964560508728,1.0558429956436157,-1.0223240852355957
1759865045910543600,17.937543701171876,1.2114660739898682,1.158793568611145,-1.0031704902648926
1759865045920614400,17.947614501953126,0.933738648891449,1.0534487962722778,-0.912190854549408
1759865045930685200,17.957685302734376,0.8379706144332886,1.173158884048462,-0.5650315880775452
1759865046001211400,18.02821142578125,1.4437036514282227,1.1085153818130493,-0.31842881441116333
1759865046011282200,18.0382822265625,1.5658079385757446,0.9241618514060974,-0.1628057211637497
1759865046021353000,18.04835302734375,1.4484920501708984,0.5674257874488831,0.181959331035614
1759865046031423700,18.058423828125,1.2449848651885986,0.2561795711517334,0.4165911078453064
1759865046061666600,18.08866650390625,0.6105214357376099,0.016759412363171577,1.036689281463623
1759865046071767800,18.098767822265625,0.3687070608139038,-0.009576806798577309,1.359906554222107
1759865046081838800,18.1088388671875,0.1364694982767105,-0.1364694982767105,1.436521053314209
1759865046091940000,18.118940185546876,-0.19393034279346466,-0.33997663855552673,1.5298948287963867
1759865046102011000,18.129010986328126,-1.0103530883789062,-2.0925323963165283,-1.7908629179000854
1759865046112112000,18.139112060546875,0.608127236366272,-1.7741034030914307,1.8267759084701538
1759865046122183000,18.149182861328125,-0.36152446269989014,-1.0749965906143188,2.542642116546631
1759865046132284400,18.159284423828126,-0.4596867263317108,-0.8595184087753296,1.968033790588379
1759865046142355200,18.169355224609376,-0.706289529800415,-1.1204863786697388,1.3263877630233765
1759865046182668800,18.209668701171875,-1.0534487962722778,-0.7158663272857666,1.5514427423477173
1759865046192709000,18.219709228515626,-1.158793568611145,-0.545877993106842,1.4939818382263184
1759865046202780000,18.22977978515625,-1.0654197931289673,-0.7733271718025208,1.0103530883789062
1759865046212850700,18.2398505859375,-0.6153098344802856,-0.9074024558067322,0.8044517636299133
1759865046222952000,18.249951904296875,-0.47165772318840027,0.038307227194309235,0.9696516990661621
1759865046232992300,18.2599921875,-0.3208230137825012,0.05746084079146385,0.7876923680305481
1759865046243093500,18.270093505859375,-0.5841852426528931,-0.13407529890537262,0.8930372595787048
1759865046263235300,18.2902353515625,-1.2689268589019775,-0.8762778043746948,0.5051765441894531
1759865046283377000,18.310376953125,-1.5442601442337036,-1.3910311460494995,0.42377370595932007
1759865046293447700,18.32044775390625,-1.3215993642807007,-1.0989385843276978,0.15562310814857483
1759865046303518500,18.3305185546875,-1.4939818382263184,-0.7469909191131592,-0.05746084079146385
1759865046313589200,18.34058935546875,-1.5394717454910278,-0.6991068720817566,-0.42856210470199585
1759865046323629600,18.350629638671876,-1.237802267074585,-0.8523358106613159,-0.6560112833976746
