time,seconds_elapsed,z,y,x
1759864123663552500,0.171552490234375,0.31674957275390625,-1.9599401950836182,-1.7521692514419556
1759864123695552500,0.203552490234375,0.2746429443359375,-1.84462308883667,-1.8054921627044678
1759864123705552600,0.213552734375,0.2609386444091797,-1.800853967666626,-1.834209680557251
1759864123715552500,0.223552490234375,0.24820613861083984,-1.7568035125732422,-1.866583228111267
1759864123725552600,0.233552734375,0.2366790771484375,-1.7183153629302979,-1.8915964365005493
1759864123755554300,0.26355419921875,0.2086200714111328,-1.6591613292694092,-1.8791604042053223
1759864123795553500,0.303553466796875,0.17856502532958984,-1.6414222717285156,-1.7683806419372559
1759864123865554400,0.373554443359375,0.17872238159179688,-1.7656488418579102,-1.4731392860412598
1759864123875554300,0.38355419921875,0.19060230255126953,-1.8235387802124023,-1.3875690698623657
1759864123885554200,0.39355419921875,0.20424652099609375,-1.888127088546753,-1.2847769260406494
1759864123895554300,0.40355419921875,0.220611572265625,-1.9580228328704834,-1.1712071895599365
1759864123905554200,0.41355419921875,0.24025821685791016,-2.0308287143707275,-1.0565606355667114
1759864123915554300,0.42355419921875,0.2626066207885742,-2.1016619205474854,-0.9561769962310791
1759864123925554200,0.43355419921875,0.28547000885009766,-2.165792226791382,-0.8766505718231201
1759864123935554300,0.44355419921875,0.30628299713134766,-2.2208797931671143,-0.8102660179138184
1759864123945554200,0.45355419921875,0.32399940490722656,-2.266303777694702,-0.7540470957756042
1759864123955554300,0.46355419921875,0.33917808532714844,-2.304884672164917,-0.7016115784645081
1759864123965554200,0.47355419921875,0.35400962829589844,-2.3419129848480225,-0.6482830047607422
1759864123975554300,0.48355419921875,0.3713397979736328,-2.3830292224884033,-0.5931074619293213
1759864123985554200,0.49355419921875,0.3910398483276367,-2.4274909496307373,-0.5385198593139648
1759864123995554300,0.50355419921875,0.4092426300048828,-2.467498540878296,-0.4884816110134125
1759864124005554700,0.5135546875,0.4224739074707031,-2.4964091777801514,-0.44745883345603943
1759864124015554600,0.523554443359375,0.4291210174560547,-2.511312246322632,-0.4200481176376343
1759864124025554700,0.5335546875,0.42920684814453125,-2.513173818588257,-0.39989525079727173
1759864124035554600,0.543554443359375,0.4238157272338867,-2.5049092769622803,-0.3771935999393463
1759864124045554700,0.5535546875,-4.288797378540039,2.873095989227295,-2.459329843521118
1759864124055554300,0.56355419921875,-4.303899765014648,2.8999571800231934,-2.435824155807495
1759864124065554400,0.573554443359375,-4.121216297149658,2.892698287963867,-1.755497694015503
1759864124075554300,0.58355419921875,-3.1119213104248047,3.828312873840332,-1.6796324253082275
1759864124085554400,0.593554443359375,-2.8484110832214355,3.9191155433654785,-2.057603359222412
1759864124095554300,0.60355419921875,-2.312987804412842,3.5419840812683105,-2.348240375518799
1759864124105554400,0.613554443359375,-1.9621453285217285,3.646430015563965,-2.463951587677002
1759864124115554800,0.623554931640625,-2.000959873199463,3.7282872200012207,-2.4744977951049805
1759864124125555000,0.633554931640625,-1.890629768371582,4.116905689239502,-2.4619593620300293
1759864124135554800,0.643554931640625,-1.6764779090881348,4.224509239196777,-2.622321367263794
1759864124145555000,0.653554931640625,-1.8063302040100098,4.276314735412598,-1.9042747020721436
1759864124155554800,0.663554931640625,-1.7828073501586914,4.318904876708984,-2.0657060146331787
1759864124165554400,0.673554443359375,-1.4219441413879395,4.353516578674316,-2.2512049674987793
1759864124175554600,0.683554443359375,-1.450610637664795,4.422517776489258,-2.2643070220947266
1759864124185554400,0.693554443359375,-1.3405823707580566,4.726844310760498,-2.2898762226104736
1759864124195554600,0.703554443359375,-2.059267520904541,4.705455780029297,-1.8738338947296143
1759864124205554400,0.713554443359375,-3.476278305053711,4.130497455596924,-1.1978338956832886
1759864124215554600,0.723554443359375,-3.4956274032592773,4.185335159301758,-1.238065481185913
1759864124225554400,0.733554443359375,-3.587630271911621,3.154144763946533,-0.7634875774383545
1759864124235554600,0.743554443359375,-3.6117944717407227,3.2184391021728516,-0.7605240345001221
1759864124245554400,0.753554443359375,-2.477816104888916,3.431303024291992,-0.7655121088027954
1759864124255555000,0.76355517578125,-2.193483829498291,3.7717831134796143,-2.3649706840515137
1759864124265555000,0.773554931640625,-2.5212879180908203,4.186970233917236,-2.963949203491211
1759864124275555000,0.78355517578125,-2.876875877380371,4.502094268798828,-3.2386372089385986
1759864124285554200,0.79355419921875,-3.0424423217773438,4.752388000488281,-3.246065616607666
1759864124295553500,0.803553466796875,-2.964965343475342,5.089777946472168,-2.9406821727752686
1759864124305552600,0.813552734375,-2.462157726287842,5.43073034286499,-2.8849170207977295
1759864124315552000,0.823552001953125,-1.7746376991271973,5.618513107299805,-2.7506027221679688
1759864124325551600,0.833551513671875,-1.8220515251159668,5.834038734436035,-2.8208065032958984
1759864124335551200,0.84355126953125,-1.1978473663330078,5.81807279586792,-2.626441478729248
1759864124345550600,0.853550537109375,-0.9262313842773438,5.617721080780029,-2.8989429473876953
1759864124355550700,0.86355078125,-0.5989007949829102,5.074823379516602,-3.3148326873779297
1759864124365550600,0.873550537109375,0.1052541732788086,4.3353729248046875,-3.03031587600708
1759864124375550500,0.883550537109375,2.6217002868652344,3.087259292602539,-1.2413370609283447
1759864124385550600,0.893550537109375,2.6139230728149414,3.289717674255371,-1.3212080001831055
1759864124395549700,0.9035498046875,3.271359443664551,1.9149260520935059,1.050419807434082
1759864124405549800,0.9135498046875,2.5165414810180664,1.631037712097168,1.6876482963562012
1759864124415549200,0.923549072265625,2.5296506881713867,1.6702778339385986,1.5918492078781128
1759864124425549000,0.933549072265625,0.025110244750976562,1.9382901191711426,0.9646610021591187
1759864124435548700,0.943548583984375,0.041782379150390625,1.8758163452148438,0.890056848526001
1759864124445548500,0.953548583984375,-0.8574085235595703,2.1200151443481445,-0.09601080417633057
1759864124455548200,0.963548095703125,-1.7107329368591309,2.1830055713653564,1.2256118059158325
1759864124465548000,0.973548095703125,-1.8410334587097168,1.849182367324829,1.916914463043213
1759864124475547400,0.98354736328125,-1.831423282623291,1.751798152923584,1.9148558378219604
1759864124485547000,0.993547119140625,-1.8115954399108887,1.769499659538269,2.137938976287842
1759864124495546600,1.003546630859375,-1.9232439994812012,1.939440369606018,2.6073389053344727
1759864124505546200,1.013546142578125,-2.192593574523926,1.964220643043518,2.301332712173462
1759864124515545600,1.023545654296875,-2.4619126319885254,2.0901403427124023,1.782494068145752
1759864124525545000,1.033544921875,-2.778026580810547,2.3935561180114746,0.925025224685669
1759864124535544300,1.04354443359375,-2.517695426940918,3.3385071754455566,-0.7930446863174438
1759864124545543700,1.053543701171875,-2.271923065185547,3.793112277984619,-1.5032029151916504
1759864124555542500,1.06354248046875,-2.3364996910095215,4.120949745178223,-1.3481431007385254
1759864124565542000,1.0735419921875,-2.321715831756592,4.126439094543457,-1.4120361804962158
1759864124575541000,1.083541015625,-2.3677072525024414,4.210467338562012,-1.161268949508667
1759864124585540900,1.093540771484375,-2.3827576637268066,4.250833511352539,-1.1286510229110718
1759864124595540700,1.103540771484375,-2.2442831993103027,4.245602607727051,-1.054839015007019
1759864124605540400,1.113540283203125,-1.9951691627502441,4.653989315032959,-2.1785776615142822
1759864124615539000,1.1235390625,-2.117708206176758,5.031224250793457,-2.81379771232605
1759864124625537800,1.133537841796875,-2.111124038696289,4.999190807342529,-2.8218111991882324
1759864124635537200,1.143537109375,-2.027029037475586,5.226949691772461,-2.6735901832580566
1759864124645536000,1.153535888671875,-2.0252180099487305,5.205462455749512,-2.668671131134033
1759864124655534600,1.16353466796875,-1.7878375053405762,4.96316385269165,-2.224977970123291
1759864124665533400,1.173533447265625,-1.3781070709228516,4.748643398284912,-2.044494390487671
1759864124675531800,1.18353173828125,-1.3791589736938477,4.754289627075195,-2.0436768531799316
1759864124685529900,1.19352978515625,-0.5462055206298828,4.415787696838379,-2.0327260494232178
1759864124695528700,1.20352880859375,-0.5473604202270508,4.426849842071533,-2.034452199935913
1759864124705527300,1.21352734375,-0.6672592163085938,4.227438449859619,-1.860833764076233
1759864124715526100,1.223526123046875,-0.921788215637207,4.045002460479736,-1.9368367195129395
1759864124725524700,1.233524658203125,-1.1922645568847656,3.950313091278076,-1.8808791637420654
1759864124735523600,1.243523681640625,-1.476717472076416,3.769446611404419,-1.6463019847869873
1759864124745522200,1.253522216796875,-1.6708216667175293,3.619703531265259,-1.6840835809707642
1759864124755520500,1.2635205078125,-1.6681170463562012,3.581498861312866,-1.672610878944397
1759864124765519400,1.273519287109375,-1.8304619789123535,3.6610264778137207,-2.188781499862671
1759864124775518000,1.28351806640625,-1.8288750648498535,3.6018500328063965,-2.158536911010742
1759864124785516800,1.293516845703125,-2.34635066986084,3.4741811752319336,-1.7510411739349365
1759864124795515400,1.303515380859375,-2.339491844177246,3.4220457077026367,-1.742323875427246
1759864124805514200,1.31351416015625,-2.607872486114502,2.953397035598755,-0.6581195592880249
1759864124815513000,1.32351318359375,-2.5958638191223145,2.9327049255371094,-0.6891592741012573
1759864124825511700,1.33351171875,-2.8697257041931152,2.954585075378418,-0.18059396743774414
1759864124835510500,1.343510498046875,-2.8144469261169434,3.1636910438537598,-0.30616331100463867
1759864124845509000,1.353509033203125,-2.788435935974121,3.384438991546631,-0.5042283535003662
1759864124855508000,1.363508056640625,-2.9053750038146973,3.5185441970825195,-0.7378337383270264
1759864124865506800,1.3735068359375,-2.905271053314209,3.544861316680908,-0.7545075416564941
1759864124875505400,1.38350537109375,-1.8919930458068848,3.429515838623047,-1.2442500591278076
1759864124885503700,1.393503662109375,-0.8693981170654297,3.355940818786621,-0.8204632997512817
1759864124895501600,1.40350146484375,-0.03793907165527344,3.383741617202759,-0.5462887287139893
1759864124905500400,1.41350048828125,0.5133457183837891,3.6536951065063477,-0.690665602684021
1759864124915499800,1.423499755859375,0.7126779556274414,3.9324746131896973,-1.0901710987091064
1759864124925499400,1.43349951171875,0.01761627197265625,4.551332950592041,-1.4883360862731934
1759864124935498000,1.443498046875,0.008313179016113281,4.549623012542725,-1.4518308639526367
1759864124945496300,1.453496337890625,-0.7442646026611328,4.086171627044678,-2.2266292572021484
1759864124955494700,1.46349462890625,-1.0520210266113281,3.858600616455078,-2.104787588119507
1759864125025485300,1.5334853515625,-2.208834171295166,4.098480224609375,-2.8455698490142822
1759864125035484200,1.543484130859375,-2.2787299156188965,3.764383316040039,-3.2446837425231934
1759864125045482800,1.553482666015625,-2.062410831451416,3.470156192779541,-2.9244327545166016
1759864125055481900,1.56348193359375,-2.076630115509033,3.4741246700286865,-2.86044979095459
1759864125065480700,1.573480712890625,-1.666834831237793,3.873356819152832,-0.9514795541763306
1759864125075479600,1.5834794921875,-2.5349254608154297,3.9857988357543945,-1.101288914680481
1759864125085478100,1.59347802734375,-2.5499496459960938,3.9740633964538574,-1.0104824304580688
1759864125095477000,1.60347705078125,-1.9388914108276367,3.832153797149658,-1.6316663026809692
1759864125105475600,1.6134755859375,-1.9610347747802734,3.897014617919922,-1.556584119796753
1759864125115474400,1.623474365234375,-0.5506038665771484,2.8971633911132812,-1.1569757461547852
1759864125125473000,1.63347314453125,-0.1667165756225586,2.8459086418151855,-0.816534161567688
1759864125135471900,1.643471923828125,-0.1777935028076172,2.9379918575286865,-0.8156260251998901
1759864125145470500,1.653470458984375,-0.4155130386352539,3.136575222015381,-0.4333212375640869
1759864125155469300,1.66346923828125,-1.2099990844726562,3.087407112121582,-0.092720627784729
1759864125165468000,1.673468017578125,-1.2132987976074219,3.188957929611206,-0.15272927284240723
1759864125175466800,1.683466796875,-0.8246355056762695,3.8297927379608154,0.1653614044189453
1759864125185465300,1.69346533203125,-0.8359670639038086,3.8772072792053223,0.21745073795318604
1759864125195465200,1.70346533203125,-1.285470962524414,4.539525985717773,0.6677203178405762
1759864125205464000,1.713464111328125,-1.2031755447387695,4.285747051239014,0.9235612154006958
1759864125215463000,1.723462890625,-0.8156528472900391,3.8946986198425293,0.5807899236679077
1759864125225461500,1.73346142578125,-0.8142032623291016,3.9727792739868164,0.5375771522521973
1759864125235460600,1.743460693359375,0.39949989318847656,4.360410213470459,0.7355626821517944
1759864125245460200,1.753460205078125,1.6070480346679688,5.051273822784424,-0.4890586733818054
1759864125255459800,1.7634599609375,0.8203029632568359,5.0488972663879395,-0.9133189916610718
1759864125265459000,1.773458984375,1.3244857788085938,4.758017539978027,-1.2429307699203491
1759864125275458600,1.78345849609375,1.3191757202148438,4.672904968261719,-1.1664083003997803
1759864125285457400,1.79345751953125,1.8979005813598633,4.546780586242676,-1.4942729473114014
1759864125295456800,1.803456787109375,1.327113151550293,4.375736236572266,-2.290656089782715
1759864125305455900,1.813455810546875,1.3348827362060547,4.224187850952148,-2.2283248901367188
1759864125315454700,1.823454833984375,0.5839748382568359,4.33698844909668,-2.0399832725524902
1759864125325453300,1.833453369140625,-0.22248268127441406,4.227385997772217,-1.346548080444336
1759864125335452200,1.8434521484375,-2.7070398330688477,3.424525737762451,-0.6168261766433716
1759864125345451000,1.853450927734375,-2.6892452239990234,3.3460779190063477,-0.6694064140319824
1759864125355449600,1.86344970703125,-2.4360127449035645,3.705659866333008,-0.4288948178291321
1759864125365448400,1.873448486328125,-1.5540571212768555,3.6119017601013184,-0.3525826930999756
1759864125375447000,1.883447021484375,-1.5497283935546875,3.6271352767944336,-0.40623199939727783
1759864125385446000,1.89344580078125,-1.0240793228149414,3.259059429168701,-0.29896414279937744
1759864125395444700,1.90344482421875,-1.0200004577636719,3.2851405143737793,-0.35786211490631104
1759864125405443300,1.913443359375,-0.8289222717285156,3.307079792022705,-0.547711968421936
1759864125415442200,1.923442138671875,-0.8122148513793945,3.303915500640869,-0.5501322150230408
1759864125425441000,1.93344091796875,-0.8881416320800781,3.2197866439819336,-0.7340584993362427
1759864125435439900,1.94343994140625,-1.090066909790039,3.1154019832611084,-0.7213018536567688
1759864125445438700,1.953438720703125,-1.3530778884887695,3.0269222259521484,-0.7215614914894104
1759864125455437800,1.963437744140625,-1.696427822113037,2.944060802459717,-0.8397035002708435
1759864125465436700,1.973436767578125,-2.036404609680176,2.8554635047912598,-0.8803389072418213
1759864125475435800,1.983435791015625,-2.234187602996826,2.769780158996582,-1.1049915552139282
1759864125485435400,1.993435302734375,-2.2692818641662598,2.907087802886963,-1.1555359363555908
1759864125495434000,2.00343408203125,-2.2548069953918457,3.197481155395508,-0.921137809753418
1759864125505433000,2.01343310546875,-2.361298084259033,3.4337210655212402,-0.8691332936286926
1759864125515432200,2.02343212890625,-2.3545422554016113,3.3933749198913574,-0.8587619662284851
1759864125525431300,2.033431396484375,-2.5538225173950195,3.8018970489501953,-1.026715636253357
1759864125535430400,2.043430419921875,-2.0053768157958984,4.0500593185424805,-1.1915781497955322
1759864125545429500,2.053429443359375,-2.008739471435547,4.077807903289795,-1.2078309059143066
1759864125555428600,2.0634287109375,-1.4681015014648438,3.7966184616088867,-1.0401371717453003
1759864125565427700,2.073427734375,-1.4742097854614258,3.8551530838012695,-1.075912356376648
1759864125575426800,2.0834267578125,-1.0588932037353516,3.6896920204162598,-0.8543556332588196
1759864125585425700,2.09342578125,-0.5560598373413086,3.4139046669006348,-0.33271288871765137
1759864125595424800,2.1034248046875,-0.4031381607055664,3.6121058464050293,-0.1476140022277832
1759864125605423900,2.113423828125,-0.870732307434082,3.452328681945801,-0.1741553544998169
1759864125625420800,2.1334208984375,-1.3921947479248047,3.3388633728027344,-0.4649696350097656
1759864125635420000,2.143419921875,-1.1947317123413086,3.4472427368164062,-0.7109975814819336
1759864125645419000,2.1534189453125,-0.5419864654541016,3.5786783695220947,-0.8537130355834961
1759864125655418000,2.163418212890625,-0.07558822631835938,3.488812208175659,-0.8474537134170532
1759864125665417200,2.173417236328125,-0.15038490295410156,3.3526816368103027,-0.6433968544006348
1759864125675416300,2.183416259765625,-0.5316534042358398,3.381366729736328,-0.48121142387390137
1759864125685415400,2.19341552734375,-0.9451427459716797,3.316436767578125,-0.650580883026123
1759864125695414000,2.2034140625,-1.1351299285888672,3.299337863922119,-0.8892135620117188
1759864125705412400,2.213412353515625,-1.1277837753295898,3.2333333492279053,-0.8586618900299072
1759864125725410600,2.23341064453125,-1.5662360191345215,3.5877737998962402,-1.6549522876739502
1759864125735409000,2.243408935546875,-1.8620390892028809,3.488654613494873,-1.7070586681365967
1759864125745407700,2.25340771484375,-2.3311963081359863,3.306583881378174,-1.608857274055481
1759864125755406600,2.263406494140625,-2.3261771202087402,3.282986640930176,-1.607840895652771
1759864125765405400,2.273405517578125,-2.1275243759155273,3.3496346473693848,-1.3045434951782227
1759864125775404300,2.283404296875,-1.7870368957519531,3.6110546588897705,-1.3782985210418701
1759864125785403100,2.293403076171875,-1.097494125366211,4.206689834594727,-2.730785846710205
1759864125795402000,2.303402099609375,-1.0540494918823242,4.1273040771484375,-2.7437939643859863
1759864125805400600,2.313400634765625,-1.0522527694702148,4.120400905609131,-2.745387077331543
1759864125815399400,2.3233994140625,-1.350874900817871,3.9212000370025635,-2.066318988800049
1759864125825398300,2.333398193359375,-1.3121976852416992,3.634960651397705,-1.68631112575531
1759864125835396900,2.34339697265625,-1.3097562789916992,3.6426162719726562,-1.711966633796692
1759864125845395500,2.3533955078125,-1.2470703125,3.3924314975738525,-0.7939570546150208
1759864125855394300,2.363394287109375,-1.2536087036132812,3.25976824760437,-0.4948000907897949
1759864125865393000,2.373392822265625,-1.2493009567260742,3.246346950531006,-0.5025032758712769
1759864125875391700,2.383391845703125,-2.2626900672912598,3.37064528465271,-0.5622717142105103
1759864125885390300,2.393390380859375,-2.257681369781494,3.3328263759613037,-0.5402253866195679
1759864125895389000,2.403388916015625,-2.4577808380126953,2.1940486431121826,-0.31551313400268555
1759864125905387800,2.4133876953125,-1.6807079315185547,2.0467422008514404,-0.6548506021499634
1759864125915387000,2.423386962890625,-1.2525253295898438,2.044233560562134,-0.9356861710548401
1759864125925386200,2.43338623046875,-1.1231365203857422,1.4367692470550537,-2.077418565750122
1759864125935385000,2.443385009765625,-0.6810760498046875,1.0856420993804932,-2.111403465270996
1759864125945383200,2.453383056640625,-1.9656572341918945,0.9336779117584229,-0.6031616926193237
1759864125955381200,2.46338134765625,-2.4142608642578125,0.6465961933135986,0.24990665912628174
1759864125965379600,2.473379638671875,-2.8733267784118652,1.0093016624450684,1.0355992317199707
1759864125975378200,2.483378173828125,-3.405097484588623,1.980912685394287,0.9239038228988647
1759864125985377000,2.493376953125,-3.5059256553649902,3.427462339401245,0.3854178190231323
1759864125995376000,2.503376220703125,-3.0971755981445312,4.145971775054932,-0.07605493068695068
1759864126005375500,2.51337548828125,-3.091470718383789,4.102783203125,-0.012995123863220215
1759864126015374300,2.523374267578125,-2.4136962890625,4.377200603485107,-0.2270480990409851
1759864126025373000,2.533373046875,-1.7091822624206543,4.738041877746582,-0.6483727693557739
1759864126035372500,2.54337255859375,-1.2650318145751953,4.911364555358887,-1.3588261604309082
1759864126045371100,2.55337109375,-0.8200902938842773,5.069039344787598,-1.7872798442840576
1759864126055370000,2.563369873046875,0.40720653533935547,5.467866897583008,-2.042614459991455
1759864126065368600,2.57336865234375,0.3717679977416992,5.637082099914551,-2.1071085929870605
1759864126075367400,2.583367431640625,1.0377731323242188,5.710324287414551,-2.2233309745788574
1759864126085366300,2.5933662109375,1.397181510925293,5.334936141967773,-2.4391818046569824
1759864126095364900,2.60336474609375,1.381424903869629,5.458195686340332,-2.505795955657959
1759864126105363700,2.61336376953125,1.0356864929199219,4.431048393249512,-2.7542691230773926
1759864126115362300,2.6233623046875,1.0337791442871094,4.475020885467529,-2.7958269119262695
1759864126125361200,2.633361083984375,-0.042838096618652344,2.728926658630371,-2.2531328201293945
1759864126135360000,2.643360107421875,-0.19933605194091797,2.921297550201416,-1.406171441078186
1759864126145358600,2.653358642578125,-0.03908538818359375,3.66433048248291,-0.783190131187439
1759864126155357400,2.663357421875,0.14103126525878906,3.7430577278137207,-1.1812336444854736
1759864126165356300,2.673356201171875,0.15185070037841797,3.68965744972229,-1.1844302415847778
1759864126175355000,2.68335498046875,-0.9116582870483398,2.9622135162353516,-1.305871844291687
1759864126185354000,2.69335400390625,-1.3649892807006836,2.9882469177246094,-1.117308497428894
1759864126195352600,2.7033525390625,-1.3322601318359375,2.8971824645996094,-1.1907089948654175
1759864126205351400,2.713351318359375,-3.347991466522217,2.7427315711975098,-0.4880330562591553
1759864126215350500,2.7233505859375,-3.320164203643799,2.6588358879089355,-0.529100775718689
1759864126225349000,2.73334912109375,-3.4098339080810547,2.917851686477661,-0.10738325119018555
1759864126235348000,2.743347900390625,-1.8105182647705078,2.834073781967163,-0.08943557739257812
1759864126245347300,2.753347412109375,-1.8031806945800781,2.811079978942871,-0.09650528430938721
1759864126255346700,2.7633466796875,-2.0460081100463867,2.5068862438201904,-0.47554445266723633
1759864126275344600,2.7833447265625,-2.995981216430664,2.9857449531555176,-0.7601654529571533
1759864126285343500,2.793343505859375,-2.6647934913635254,2.8855056762695312,-0.48638594150543213
1759864126295342000,2.803342041015625,-1.9520578384399414,2.965639114379883,-0.14780282974243164
1759864126305341000,2.8133408203125,-1.9536170959472656,3.0082011222839355,-0.1859605312347412
1759864126315339500,2.823339599609375,-1.6570196151733398,2.770570755004883,-0.9556198120117188
1759864126325338400,2.83333837890625,-1.6619300842285156,2.7828867435455322,-0.9473259449005127
1759864126335337000,2.8433369140625,-1.7866382598876953,2.8130388259887695,-1.791852593421936
1759864126345335800,2.853335693359375,-1.7869987487792969,2.810556411743164,-1.7877784967422485
1759864126355334700,2.863334716796875,-1.9865522384643555,2.956357955932617,-1.7437644004821777
1759864126365333200,2.873333251953125,-2.3786773681640625,2.152296781539917,-0.3201957941055298
1759864126375331300,2.883331298828125,-2.5954833030700684,2.221219778060913,0.4678785800933838
1759864126385330200,2.893330078125,-2.728999137878418,3.4136316776275635,0.17798590660095215
1759864126395329000,2.9033291015625,-3.2333507537841797,3.515821695327759,-0.8469849824905396
1759864126405327600,2.91332763671875,-3.009394645690918,4.23265266418457,-1.487626552581787
1759864126415326500,2.923326416015625,-3.011962890625,4.2577009201049805,-1.5022077560424805
1759864126425325300,2.9333251953125,-3.1057796478271484,4.564702987670898,-1.6199733018875122
1759864126435324000,2.943323974609375,-3.624363899230957,4.699116230010986,-1.49806809425354
1759864126445322800,2.95332275390625,-3.3476152420043945,4.973272323608398,-1.4395639896392822
1759864126455321300,2.9633212890625,-3.492729663848877,4.850574493408203,-1.7891545295715332
1759864126465320200,2.9733203125,-3.5085558891296387,4.917697906494141,-1.7840566635131836
1759864126475318800,2.98331884765625,-3.2673544883728027,4.55775785446167,-2.1923911571502686
1759864126485317600,2.993317626953125,-3.284135341644287,4.674292087554932,-2.2183079719543457
1759864126495316500,3.00331640625,-2.8099141120910645,4.436403751373291,-1.9919278621673584
1759864126505315300,3.0133154296875,-2.0391855239868164,4.532175540924072,-1.5009316205978394
1759864126515314000,3.02331396484375,-0.03001689910888672,4.3266754150390625,-1.0466173887252808
1759864126525313000,3.03331298828125,0.6315450668334961,4.164116382598877,-1.204451084136963
1759864126535312000,3.043311767578125,0.6141567230224609,4.251237869262695,-1.1778295040130615
1759864126545310700,3.053310791015625,0.36419200897216797,3.864150047302246,-1.4853522777557373
1759864126555309800,3.063309814453125,0.44405174255371094,4.172147750854492,-2.8858633041381836
1759864126565308700,3.07330859375,1.4993305206298828,4.238298416137695,-2.8083643913269043
1759864126575307800,3.083307861328125,1.900425910949707,4.517551422119141,-3.0634889602661133
1759864126585306600,3.093306640625,1.0524063110351562,4.892879962921143,-2.443143129348755
1759864126595305700,3.1033056640625,0.061016082763671875,4.757331848144531,-2.365941286087036
1759864126605304800,3.113304931640625,-0.6798000335693359,4.853773593902588,-2.2147300243377686
1759864126615304000,3.123303955078125,-1.2762565612792969,4.89375638961792,-1.8800270557403564
1759864126625302800,3.133302734375,-1.5387921333312988,4.488412857055664,-1.3263875246047974
1759864126635302000,3.143302001953125,-1.5435452461242676,4.447433948516846,-1.2919076681137085
1759864126645301000,3.153301025390625,-2.2476444244384766,3.724104404449463,0.17598772048950195
1759864126655300000,3.163300048828125,-2.2552413940429688,3.6814522743225098,0.22561883926391602
1759864126665299200,3.17329931640625,-2.596968650817871,3.3560967445373535,0.6967716217041016
1759864126675298800,3.183298828125,-2.5465798377990723,4.175838947296143,-1.6699349880218506
1759864126685298000,3.1932978515625,-2.5487751960754395,4.182302474975586,-1.663811206817627
1759864126695297000,3.203297119140625,-1.259922981262207,3.619887351989746,-0.9642202854156494
1759864126705296100,3.213296142578125,-1.3384885787963867,3.29903507232666,-0.22059297561645508
1759864126715295200,3.223295166015625,-0.7667007446289062,3.630812644958496,-0.6348527669906616
1759864126735293200,3.243293212890625,-1.3216686248779297,3.855285167694092,-0.7451143264770508
1759864126745292300,3.253292236328125,-1.4137296676635742,3.9208412170410156,-0.7424511909484863
1759864126755291400,3.26329150390625,-1.4161529541015625,3.912472724914551,-0.7279677391052246
1759864126765290500,3.27329052734375,-1.6859893798828125,3.7958216667175293,-0.5811644792556763
1759864126775289300,3.283289306640625,-1.6880245208740234,3.79545521736145,-0.5719631910324097
1759864126785288400,3.293288330078125,-1.3126716613769531,3.849700927734375,-0.3548572063446045
1759864126795287600,3.30328759765625,-0.6284637451171875,4.090535640716553,-0.12071919441223145
1759864126805286700,3.31328662109375,-0.6299924850463867,4.088837623596191,-0.11302590370178223
1759864126815285500,3.323285400390625,-1.2879037857055664,4.332123756408691,-0.19165873527526855
1759864126825284600,3.33328466796875,-1.788398265838623,4.443691730499268,-0.23296654224395752
1759864126835283500,3.343283447265625,-2.1394705772399902,4.629392623901367,-0.32037198543548584
1759864126845282300,3.3532822265625,-2.611934185028076,4.756975173950195,-0.47732412815093994
1759864126855281200,3.36328125,-2.6074109077453613,4.736147880554199,-0.4868682622909546
1759864126865280000,3.373280029296875,-2.8478574752807617,4.797330856323242,-0.38320207595825195
1759864126875278600,3.383278564453125,-2.8729586601257324,4.85141134262085,-0.3881833553314209
1759864126885276700,3.393276611328125,-2.617957592010498,4.918021202087402,-0.5840281248092651
1759864126895274500,3.4032744140625,-2.0890674591064453,4.97283935546875,-0.6586980819702148
1759864126905272600,3.4132724609375,-0.8133544921875,5.001870632171631,-0.38556385040283203
1759864126915271200,3.423271240234375,-0.4705772399902344,5.172219276428223,-0.16486072540283203
1759864126925270000,3.43327001953125,-0.5119590759277344,5.202245712280273,-0.16826534271240234
1759864126935268900,3.443268798828125,-0.748539924621582,5.163640022277832,-0.24901163578033447
1759864126945267500,3.453267333984375,-0.7475156784057617,5.165521621704102,-0.25444233417510986
1759864126955265800,3.463265869140625,-0.3447856903076172,4.9229631423950195,-0.4285776615142822
1759864126965264400,3.473264404296875,0.19843101501464844,4.906860828399658,-0.4406726360321045
1759864126975263200,3.48326318359375,0.4971599578857422,4.863823413848877,-0.4895339012145996
1759864126985261800,3.49326171875,0.8656787872314453,4.804803848266602,-0.5513409376144409
1759864126995260700,3.5032607421875,1.0387811660766602,4.6681694984436035,-0.4781339168548584
1759864127005259300,3.51325927734375,0.6966314315795898,4.548974990844727,-0.38276028633117676
1759864127015258000,3.523258056640625,0.272491455078125,4.435012340545654,-0.4917149543762207
1759864127025257000,3.533257080078125,-0.1050577163696289,4.277637004852295,-0.8104280233383179
1759864127035255800,3.543255859375,-0.15229129791259766,4.171189308166504,-1.0728040933609009
1759864127045254400,3.55325439453125,-0.04973030090332031,4.1900634765625,-1.3441689014434814
1759864127055253200,3.563253173828125,0.14751815795898438,4.0597028732299805,-1.7134006023406982
1759864127065251800,3.573251953125,0.07628059387207031,3.88906192779541,-1.754550814628601
1759864127095248100,3.603248046875,-0.04436779022216797,2.332014322280884,-1.5736336708068848
1759864127105247000,3.6132470703125,0.12298774719238281,2.1072754859924316,-1.2854902744293213
1759864127115245600,3.62324560546875,0.08071517944335938,2.25905179977417,-1.2949120998382568
1759864127125244400,3.633244384765625,-0.31002330780029297,2.6006219387054443,-1.5323050022125244
1759864127135243300,3.6432431640625,-0.6878318786621094,2.90790057182312,-1.8960109949111938
1759864127145241900,3.653241943359375,-1.1324892044067383,2.975958824157715,-2.171851873397827
1759864127155240700,3.66324072265625,-1.333491325378418,2.820669174194336,-2.234375476837158
1759864127165239600,3.673239501953125,-1.1724777221679688,2.7322797775268555,-2.2229411602020264
1759864127175238100,3.683238037109375,-0.9518070220947266,2.788158893585205,-2.317034959793091
1759864127185237800,3.69323779296875,-0.9462156295776367,2.7677254676818848,-2.22274112701416
1759864127195237400,3.7032373046875,-0.9721221923828125,2.762813091278076,-2.0423686504364014
1759864127205236700,3.71323681640625,-0.9734201431274414,2.7902097702026367,-2.0563714504241943
1759864127215235600,3.723235595703125,-1.203904151916504,2.9705801010131836,-1.7175910472869873
1759864127225234200,3.733234130859375,-1.2044944763183594,3.001150608062744,-1.735907793045044
1759864127235233000,3.74323291015625,-1.3326873779296875,3.1681408882141113,-1.4384434223175049
1759864127245231900,3.75323193359375,-1.3353004455566406,3.2039387226104736,-1.4501605033874512
1759864127255230200,3.763230224609375,-1.3157720565795898,3.235471248626709,-1.366666316986084
1759864127265229000,3.77322900390625,-1.1375713348388672,3.066602945327759,-1.2107372283935547
1759864127275228000,3.783227783203125,-0.9769735336303711,2.94960355758667,-1.1050139665603638
1759864127285226200,3.793226318359375,-0.9836797714233398,2.9857048988342285,-1.0965484380722046
1759864127295224300,3.803224365234375,-0.9245195388793945,2.933032512664795,-1.087640404701233
1759864127305223000,3.813222900390625,-0.9833173751831055,2.838718891143799,-1.1115690469741821
1759864127315221800,3.8232216796875,-0.9852514266967773,2.8589818477630615,-1.114000916481018
1759864127325220400,3.833220458984375,-1.1603822708129883,2.8902945518493652,-1.0291837453842163
1759864127335219200,3.84321923828125,-1.7514290809631348,3.063713550567627,-0.9510860443115234
1759864127345217800,3.8532177734375,-1.9164228439331055,3.197632074356079,-0.9723031520843506
1759864127355216600,3.863216552734375,-2.02445650100708,3.400510311126709,-1.1394333839416504
1759864127365215200,3.87321533203125,-2.089834213256836,3.445985794067383,-1.1396381855010986
1759864127375214000,3.883214111328125,-2.1193904876708984,3.4858412742614746,-1.1496508121490479
1759864127385212700,3.893212646484375,-2.151083469390869,3.5183868408203125,-1.207226276397705
1759864127395211500,3.90321142578125,-2.081883430480957,3.456122875213623,-1.1265242099761963
1759864127405210000,3.913210205078125,-2.098453998565674,3.4944047927856445,-1.0379730463027954
1759864127415209000,3.923208984375,-2.076322555541992,3.6087145805358887,-1.0512901544570923
1759864127425207800,3.933207763671875,-2.075751304626465,3.5936203002929688,-1.0452076196670532
1759864127435206400,3.943206298828125,-1.843245029449463,3.590284824371338,-1.0652543306350708
1759864127445205200,3.953205322265625,-1.8437819480895996,3.5806007385253906,-1.0571495294570923
1759864127455203800,3.963203857421875,-1.277902603149414,3.757864236831665,-1.3785653114318848
1759864127465202700,3.97320263671875,-0.8421287536621094,3.849947214126587,-1.4024648666381836
1759864127475201300,3.983201171875,-0.5883874893188477,3.9398610591888428,-1.3431780338287354
1759864127485200100,3.9932001953125,-0.5902919769287109,3.9240779876708984,-1.3245923519134521
1759864127495199000,4.003198974609375,-0.7377796173095703,4.232407569885254,-1.402852177619934
1759864127505197600,4.013197509765625,-0.6507253646850586,4.448864936828613,-1.3989380598068237
1759864127515196400,4.023196533203125,-0.6527509689331055,4.423983573913574,-1.3723609447479248
1759864127525195300,4.0331953125,-0.46380138397216797,4.642947673797607,-1.6105538606643677
1759864127535194000,4.043194091796875,0.5288829803466797,4.618803024291992,-1.7573262453079224
1759864127545192700,4.053192626953125,1.1762351989746094,4.3142805099487305,-1.819810390472412
1759864127555192000,4.063192138671875,1.7827463150024414,3.9460182189941406,-1.7640630006790161
1759864127565191000,4.07319091796875,1.7791156768798828,3.94535231590271,-1.7451207637786865
1759864127575189800,4.083189697265625,2.217160224914551,3.1472487449645996,-1.5565464496612549
1759864127585188600,4.093188720703125,2.0395116806030273,3.035705089569092,-1.4927992820739746
1759864127595188200,4.103188232421875,1.6444473266601562,3.0981903076171875,-1.4387342929840088
1759864127605187000,4.11318701171875,0.941741943359375,3.0377068519592285,-1.42612886428833
1759864127615185700,4.123185546875,0.32172489166259766,2.850315570831299,-1.5075535774230957
1759864127625184500,4.1331845703125,0.3341703414916992,2.7745046615600586,-1.5054738521575928
1759864127635183400,4.143183349609375,-0.8386068344116211,3.4748716354370117,-1.0721585750579834
1759864127645182500,4.153182373046875,-1.6503243446350098,3.6522910594940186,-0.6993658542633057
1759864127655181300,4.163181396484375,-2.5952181816101074,3.818577766418457,-0.44470953941345215
1759864127665180200,4.17318017578125,-2.578880786895752,3.7297654151916504,-0.43383944034576416
1759864127675179000,4.183178955078125,-3.560276985168457,3.67333722114563,-0.4361804723739624
1759864127685177900,4.193177734375,-3.2483272552490234,3.180136203765869,-0.8800054788589478
1759864127695176700,4.2031767578125,-3.25069522857666,3.1610021591186523,-0.8432636260986328
1759864127705175800,4.21317578125,-1.7752318382263184,1.592501163482666,-1.31454336643219
1759864127715174700,4.223174560546875,-0.8193416595458984,0.8296623229980469,-1.4435569047927856
1759864127725173200,4.23317333984375,-0.8359975814819336,0.8768880367279053,-1.406505823135376
1759864127735172000,4.243172119140625,0.07830810546875,0.37459444999694824,-1.404136300086975
1759864127745171200,4.253171142578125,0.8483686447143555,0.3068082332611084,-1.250565528869629
1759864127755170000,4.263170166015625,0.8365707397460938,0.35332322120666504,-1.2356642484664917
1759864127765169000,4.2731689453125,-0.09072017669677734,1.0705417394638062,-1.099981427192688
1759864127775167700,4.283167724609375,-0.09573078155517578,1.094044804573059,-1.0972423553466797
1759864127785166600,4.29316650390625,-1.0168075561523438,1.386899471282959,-0.9777170419692993
1759864127795165400,4.30316552734375,-2.3556461334228516,2.007413864135742,-1.0013980865478516
1759864127805164300,4.313164306640625,-2.356306552886963,2.2865121364593506,-1.008324384689331
1759864127815163100,4.3231630859375,-2.366957187652588,2.324589252471924,-0.9845156669616699
1759864127825162000,4.333161865234375,-2.1186394691467285,2.4665074348449707,-0.9242663383483887
1759864127835160800,4.343160888671875,-1.269953727722168,2.2351696491241455,-0.6909095644950867
1759864127845159700,4.35315966796875,-1.0021953582763672,2.240191698074341,-0.5120227336883545
1759864127855158500,4.363158447265625,-1.0123462677001953,2.2699837684631348,-0.4743382930755615
1759864127865157400,4.373157470703125,-1.9412846565246582,2.3279623985290527,-0.29251861572265625
1759864127875155700,4.38315576171875,-1.9456677436828613,2.3241922855377197,-0.25422680377960205
1759864127885154300,4.393154296875,-2.812533378601074,2.3955416679382324,-0.06395983695983887
1759864127895152400,4.40315234375,-4.0113420486450195,2.7841482162475586,0.135270357131958
1759864127905150500,4.413150390625,-4.381317615509033,2.749415397644043,0.01571333408355713
1759864127915149000,4.423149169921875,-4.382693767547607,2.738525629043579,0.04361879825592041
1759864127925148000,4.43314794921875,-4.08089017868042,2.6006388664245605,-0.17718487977981567
1759864127935146800,4.443146728515625,-4.084269046783447,2.6146013736724854,-0.16789227724075317
1759864127945145300,4.453145263671875,-2.7835841178894043,2.7946391105651855,-0.418364942073822
1759864127955144200,4.463144287109375,-2.304220199584961,2.9903950691223145,-0.3758731484413147
1759864127965142800,4.473142822265625,-2.307523727416992,3.013906717300415,-0.3800995945930481
1759864127975140900,4.483140869140625,-2.5080137252807617,3.485039710998535,0.19832682609558105
1759864127985139500,4.493139404296875,-2.508077621459961,3.487362861633301,0.19561445713043213
1759864128005136400,4.513136474609375,-3.1143059730529785,3.6457748413085938,0.5918858051300049
1759864128015135000,4.523135009765625,-3.1144165992736816,3.655555009841919,0.579292893409729
1759864128025133800,4.5331337890625,-1.9617695808410645,3.9658985137939453,0.34763360023498535
1759864128035132400,4.54313232421875,-1.964200496673584,3.9933743476867676,0.33233940601348877
1759864128045131300,4.55313134765625,-1.249302864074707,4.188604354858398,0.09271633625030518
1759864128055129900,4.5631298828125,-0.578094482421875,4.433223724365234,-0.19500833749771118
1759864128065128700,4.573128662109375,0.21254253387451172,4.6933913230896,-0.640449047088623
1759864128075126800,4.583126708984375,0.7084455490112305,4.6399970054626465,-1.08279550075531
1759864128085125400,4.59312548828125,1.2976446151733398,4.469667434692383,-1.4740551710128784
1759864128095124200,4.603124267578125,1.2932538986206055,4.495306968688965,-1.466361403465271
1759864128105123000,4.613123046875,2.2280359268188477,3.953145742416382,-1.812770962715149
1759864128135119400,4.643119384765625,2.769744873046875,3.552131175994873,-1.3345017433166504
1759864128145118000,4.653117919921875,2.2339096069335938,3.9118332862854004,-1.2562276124954224
1759864128155116800,4.66311669921875,1.2437686920166016,4.417380332946777,-1.3554823398590088
1759864128167123000,4.675123046875,0.20123672485351562,4.746041297912598,-1.663773775100708
1759864128177122300,4.685122314453125,0.21111583709716797,4.6746110916137695,-1.6586933135986328
1759864128187121400,4.695121337890625,-0.34461498260498047,4.597801685333252,-2.1714959144592285
1759864128197120800,4.705120849609375,-0.33718395233154297,4.5435357093811035,-2.160299301147461
1759864128207120400,4.715120361328125,-0.037032127380371094,3.8995180130004883,-1.7940928936004639
1759864128217119200,4.725119140625,0.7621736526489258,2.761768102645874,-0.8553376197814941
1759864128227117800,4.735117919921875,0.7657566070556641,2.7415781021118164,-0.856397271156311
1759864128237116700,4.74511669921875,1.0781974792480469,2.7594847679138184,-1.3574963808059692
1759864128247115500,4.755115478515625,1.0820293426513672,2.7459616661071777,-1.370483160018921
1759864128257114000,4.765114013671875,0.25041866302490234,2.2807397842407227,-1.7111541032791138
1759864128267113000,4.775113037109375,0.25351715087890625,2.272658109664917,-1.7255245447158813
1759864128277112300,4.7851123046875,0.22274398803710938,1.325615644454956,-2.013916015625
1759864128287111200,4.795111083984375,0.21912002563476562,1.3452314138412476,-2.012580394744873
1759864128297110800,4.80511083984375,1.2751874923706055,0.7187162637710571,-1.7478513717651367
1759864128307109400,4.815109375,1.2666740417480469,0.7610061168670654,-1.7362866401672363
1759864128317108200,4.825108154296875,1.2613658905029297,1.1381611824035645,-0.8833826780319214
1759864128327106800,4.83510693359375,1.2560062408447266,1.1662282943725586,-0.8761270046234131
1759864128337105700,4.845105712890625,-0.5473833084106445,1.9779362678527832,-0.4465975761413574
1759864128347104300,4.855104248046875,-0.5489645004272461,1.9818819761276245,-0.43805360794067383
1759864128357103000,4.86510302734375,-2.358154773712158,2.4580435752868652,-0.27264052629470825
1759864128367101700,4.875101806640625,-2.361001491546631,2.4616851806640625,-0.25176364183425903
1759864128377101000,4.88510107421875,-2.5501279830932617,2.6470541954040527,-0.23322397470474243
1759864128387100000,4.895099853515625,-2.266946792602539,2.708413600921631,-0.21915000677108765
1759864128397098500,4.905098388671875,-1.927018642425537,2.6841511726379395,-0.1926289200782776
1759864128407097300,4.915097412109375,-1.8239145278930664,2.6868579387664795,-0.1410074234008789
1759864128417096200,4.92509619140625,-1.949613094329834,2.591796636581421,-0.03922468423843384
1759864128427094800,4.9350947265625,-2.1435537338256836,2.440011501312256,0.049079835414886475
1759864128437093600,4.94509375,-2.147491455078125,2.4532017707824707,0.07207709550857544
1759864128447092200,4.95509228515625,-2.30904483795166,2.336831569671631,0.08604782819747925
1759864128457091000,4.965091064453125,-2.3363819122314453,2.2455949783325195,0.201734721660614
1759864128467090000,4.97508984375,-2.3086295127868652,2.171074390411377,0.4665735960006714
1759864128477088500,4.985088623046875,-2.192176342010498,2.097104072570801,0.6988099813461304
1759864128487087400,4.99508740234375,-2.195072650909424,2.1061248779296875,0.7203731536865234
1759864128497086000,5.0050859375,-2.1565561294555664,2.1028666496276855,0.6949458718299866
1759864128507084800,5.015084716796875,-2.255903720855713,2.2696967124938965,0.3034716248512268
1759864128517083600,5.025083740234375,-2.2560105323791504,2.266136646270752,0.31163060665130615
1759864128527082200,5.035082275390625,-2.5402188301086426,2.4263343811035156,0.08846843242645264
1759864128537081000,5.0450810546875,-2.601285457611084,2.4882640838623047,-0.0982065200805664
1759864128547080000,5.055079833984375,-2.5950570106506348,2.6633830070495605,-0.3112930655479431
1759864128557078500,5.06507861328125,-2.4761619567871094,2.8182740211486816,-0.5671043992042542
1759864128567077400,5.075077392578125,-2.321188449859619,3.0325028896331787,-0.7832837700843811
1759864128577076200,5.085076171875,-2.319096088409424,3.018200159072876,-0.7840561866760254
1759864128587074800,5.09507470703125,-2.168038845062256,3.2575998306274414,-1.031073808670044
1759864128597073700,5.10507373046875,-2.030766010284424,3.8448357582092285,-1.1116594076156616
1759864128607072300,5.115072265625,-2.0270943641662598,3.825169086456299,-1.1222033500671387
1759864128617071000,5.125071044921875,-2.0572056770324707,4.440000534057617,-1.2459297180175781
1759864128627069700,5.135069580078125,-1.717451572418213,4.674506187438965,-1.571401596069336
1759864128637068500,5.145068603515625,-0.9990549087524414,4.75081205368042,-1.8671414852142334
1759864128647067400,5.1550673828125,-1.001007080078125,4.764510154724121,-1.8686838150024414
1759864128657066200,5.165066162109375,0.7409095764160156,4.489907741546631,-1.9052021503448486
1759864128667065000,5.175065185546875,1.7445135116577148,4.141142845153809,-1.6774705648422241
1759864128677064000,5.18506396484375,1.7400646209716797,4.16834020614624,-1.6701868772506714
1759864128687062800,5.195062744140625,2.617812156677246,3.667605400085449,-1.3138022422790527
1759864128697062000,5.205061767578125,3.1840991973876953,3.3941092491149902,-0.8203978538513184
1759864128707060700,5.215060791015625,2.6280364990234375,3.6052489280700684,-0.29254573583602905
1759864128717059800,5.225059814453125,2.0914506912231445,3.77614688873291,-0.2085651159286499
1759864128727059000,5.235058837890625,1.6883735656738281,4.0597825050354,-0.11305469274520874
1759864128737057800,5.245057861328125,1.3746938705444336,4.205392837524414,-0.07606756687164307
1759864128747057000,5.255056884765625,1.3819618225097656,4.161202430725098,-0.08261960744857788
1759864128757056000,5.265055908203125,0.9075279235839844,3.855663299560547,-0.19013065099716187
1759864128767055000,5.27505517578125,0.9139499664306641,3.812406539916992,-0.1828635334968567
1759864128777054200,5.28505419921875,0.758601188659668,2.960216760635376,-0.03798586130142212
1759864128787053300,5.29505322265625,0.8002643585205078,2.436023712158203,-0.2843370735645294
1759864128797052400,5.305052490234375,1.0269031524658203,1.917585849761963,-0.5704922080039978
1759864128807051500,5.315051513671875,1.0267009735107422,1.9091503620147705,-0.5476306676864624
1759864128817050600,5.325050537109375,1.2739973068237305,0.768316388130188,-0.5348573923110962
1759864128827049700,5.3350498046875,1.1444740295410156,0.2640104293823242,-0.2743754982948303
1759864128837048800,5.345048828125,1.09100341796875,-0.09535551071166992,-0.21221515536308289
1759864128847048000,5.3550478515625,1.0870122909545898,-0.08268094062805176,-0.18254390358924866
1759864128857047000,5.365047119140625,1.1399297714233398,-0.352097749710083,-0.20712235569953918
1759864128867046000,5.3750458984375,0.6568202972412109,0.10046780109405518,-0.03544032573699951
1759864128877044500,5.38504443359375,0.6538248062133789,0.11539673805236816,-0.026114225387573242
1759864128887042800,5.395042724609375,-0.08244705200195312,0.6180646419525146,-0.12514671683311462
1759864128907039500,5.41503955078125,-2.3309803009033203,2.0469021797180176,-0.4045937657356262
1759864128917038600,5.42503857421875,-2.328062057495117,2.033010482788086,-0.41540461778640747
1759864128927037700,5.43503759765625,-3.2200002670288086,2.2023894786834717,-0.27695927023887634
1759864128937036800,5.445036865234375,-4.023830890655518,2.239347457885742,-0.08654120564460754
1759864128947035600,5.45503564453125,-4.079370021820068,2.168954372406006,0.043189406394958496
1759864128957034800,5.46503466796875,-3.8679699897766113,2.2055602073669434,0.17000508308410645
1759864128967033300,5.475033447265625,-3.868375301361084,2.2081685066223145,0.16923528909683228
1759864128977032200,5.4850322265625,-3.2828617095947266,2.1224496364593506,0.23438626527786255
1759864128987031000,5.495031005859375,-3.2841415405273438,2.132756233215332,0.22620856761932373
1759864128997030000,5.50502978515625,-3.0890541076660156,2.1672544479370117,0.039728522300720215
1759864129007028700,5.51502880859375,-3.1525135040283203,2.2871475219726562,-0.45109856128692627
1759864129017027600,5.525027587890625,-3.139594078063965,2.3059897422790527,-0.5965385437011719
1759864129027026400,5.5350263671875,-3.1417179107666016,2.316318988800049,-0.589963436126709
1759864129037025300,5.545025390625,-3.056093692779541,2.43190336227417,-0.7693662643432617
1759864129047024000,5.555024169921875,-2.751189708709717,2.4414620399475098,-0.839608907699585
1759864129057022700,5.565022705078125,-2.329967498779297,2.4064953327178955,-0.7539209127426147
1759864129067021300,5.575021240234375,-1.7442350387573242,2.3295350074768066,-0.6060905456542969
1759864129077020200,5.585020263671875,-1.2018852233886719,2.2354910373687744,-0.3367283046245575
1759864129087018800,5.595018798828125,-0.680790901184082,2.277176856994629,0.1998293101787567
1759864129097017600,5.605017578125,-0.36476802825927734,2.3978359699249268,0.5666993260383606
1759864129107016400,5.615016357421875,-0.18624401092529297,2.6377949714660645,0.7363789081573486
1759864129117015000,5.62501513671875,-0.19533061981201172,3.075721502304077,1.0880964994430542
1759864129127014000,5.635013916015625,-0.4470252990722656,3.50437593460083,1.441407322883606
1759864129137012500,5.645012451171875,-0.5991201400756836,3.8717308044433594,1.5900858640670776
1759864129147011300,5.65501123046875,-0.5972099304199219,3.8558273315429688,1.597893238067627
1759864129157010200,5.66501025390625,-0.44420623779296875,4.165348052978516,1.5107383728027344
1759864129167009000,5.675009033203125,-0.2815999984741211,4.146796226501465,1.4434401988983154
1759864129177008400,5.68500830078125,-0.09753131866455078,4.0480122566223145,1.2938138246536255
1759864129187007700,5.6950078125,0.19640636444091797,3.8513007164001465,1.0295789241790771
1759864129197007400,5.70500732421875,0.6334304809570312,3.6426851749420166,0.7332034111022949
1759864129207007000,5.715007080078125,1.294926643371582,3.4770843982696533,0.36921143531799316
1759864129217005600,5.725005615234375,1.2955074310302734,3.4728336334228516,0.3709474205970764
1759864129227004400,5.73500439453125,2.1396541595458984,3.4707584381103516,0.07276386022567749
1759864129237003300,5.745003173828125,1.8650703430175781,3.864734649658203,0.2098163664340973
1759864129247001900,5.755001953125,1.2791099548339844,4.1702117919921875,0.2839375436306
1759864129257000700,5.765000732421875,0.6900043487548828,3.9026055335998535,0.2600744664669037
1759864129266999800,5.774999755859375,0.6278724670410156,3.2525579929351807,0.26901182532310486
1759864129276998700,5.78499853515625,0.6339454650878906,3.213571786880493,0.2857924997806549
1759864129286997500,5.79499755859375,1.5050697326660156,2.0865843296051025,0.18557992577552795
1759864129296996000,5.80499609375,1.8797883987426758,1.7067168951034546,-0.01523628830909729
1759864129306995000,5.814994873046875,1.7570581436157227,1.4535542726516724,0.05684393644332886
1759864129316993500,5.82499365234375,1.2813482284545898,1.382919192314148,0.34598660469055176
1759864129326992400,5.834992431640625,0.6728858947753906,1.406200647354126,0.513538122177124
1759864129336991200,5.8449912109375,0.6803064346313477,1.3756624460220337,0.4790758788585663
1759864129346989800,5.85498974609375,-0.36136722564697266,1.161141276359558,-0.03667020797729492
1759864129356988700,5.86498876953125,-0.5305633544921875,1.0484366416931152,-0.4852007329463959
1759864129366987300,5.8749873046875,-0.6896896362304688,1.082344889640808,-0.7913562059402466
1759864129376986000,5.884986083984375,-0.68780517578125,1.0759007930755615,-0.8019443154335022
1759864129386985000,5.89498486328125,-0.8887720108032227,1.103709101676941,-0.8478549718856812
1759864129396983600,5.904983642578125,-1.1272754669189453,1.28069269657135,-0.868910014629364
1759864129406981600,5.914981689453125,-1.355311393737793,1.7528648376464844,-1.0294055938720703
1759864129416980500,5.92498046875,-1.4529695510864258,2.0042495727539062,-1.1269136667251587
1759864129426979000,5.93497900390625,-1.5159263610839844,2.1201417446136475,-1.0874595642089844
1759864129436978000,5.94497802734375,-1.4843225479125977,2.0955357551574707,-0.9813889265060425
1759864129446976500,5.9549765625,-1.2240619659423828,1.9423683881759644,-0.8725452423095703
1759864129456975000,5.96497509765625,-1.2327651977539062,1.9873569011688232,-0.8625128269195557
1759864129466974000,5.974973876953125,-0.7555503845214844,1.5329363346099854,-0.5072581768035889
1759864129476972500,5.98497265625,-0.617680549621582,1.3914645910263062,-0.3651125431060791
1759864129486971400,5.994971435546875,-0.6245269775390625,1.4276676177978516,-0.35011690855026245
1759864129496970200,6.00497021484375,-0.7971887588500977,1.2775330543518066,-0.12468335032463074
1759864129506968800,6.01496875,-1.130640983581543,1.3512574434280396,0.039342284202575684
1759864129516967700,6.0249677734375,-1.6990423202514648,1.4232783317565918,0.1793016791343689
1759864129526966500,6.034966552734375,-1.6982135772705078,1.418178677558899,0.1790042519569397
1759864129536965000,6.044965087890625,-2.830948829650879,1.709852695465088,0.2795037031173706
1759864129546964000,6.0549638671875,-3.1658124923706055,1.8766592741012573,0.2744041085243225
1759864129556962600,6.064962646484375,-3.3545851707458496,1.9892216920852661,0.28799158334732056
1759864129566961400,6.07496142578125,-3.4454221725463867,2.1134462356567383,0.3023073077201843
1759864129576960300,6.084960205078125,-3.5079293251037598,2.178152561187744,0.23229360580444336
1759864129586958800,6.094958740234375,-3.475221633911133,2.2031219005584717,0.1098054051399231
1759864129596957700,6.104957763671875,-3.3403172492980957,2.2661023139953613,-0.09380897879600525
1759864129606956300,6.114956298828125,-3.0410547256469727,2.3433427810668945,-0.28908827900886536
1759864129616955100,6.124955078125,-2.7493700981140137,2.4059267044067383,-0.49303698539733887
1759864129626954000,6.1349541015625,-2.3839550018310547,2.475217342376709,-0.7179278135299683
1759864129636952600,6.14495263671875,-1.9853591918945312,2.6669135093688965,-0.9426299333572388
1759864129646951400,6.154951416015625,-1.663590431213379,2.7841033935546875,-1.052715539932251
1759864129656950300,6.1649501953125,-1.6649904251098633,2.790095329284668,-1.045588493347168
1759864129666948900,6.174948974609375,-1.4507389068603516,3.0106582641601562,-1.0004369020462036
1759864129676947700,6.18494775390625,-0.8964366912841797,3.240880012512207,-0.5353001356124878
1759864129686946600,6.194946533203125,-0.6079025268554688,3.273456573486328,-0.34587228298187256
1759864129696945200,6.204945068359375,-0.6093311309814453,3.2819533348083496,-0.3448781967163086
1759864129706944500,6.214944580078125,0.504368782043457,3.5192625522613525,-0.38175785541534424
1759864129716943400,6.224943359375,1.236825942993164,3.5342493057250977,-0.46233975887298584
1759864129726942200,6.234942138671875,1.2340202331542969,3.550062656402588,-0.45662957429885864
1759864129736940800,6.24494091796875,1.8636045455932617,3.4863109588623047,-0.40478819608688354
1759864129746939600,6.254939697265625,2.398284912109375,3.222064971923828,-0.13509118556976318
1759864129756938500,6.2649384765625,2.512627601623535,3.107184886932373,0.03617072105407715
1759864129766937300,6.274937255859375,2.4725685119628906,2.997450351715088,0.2906566262245178
1759864129776936400,6.2849365234375,2.108576774597168,3.0128674507141113,0.508640706539154
1759864129786935300,6.294935302734375,1.574479103088379,3.2527453899383545,0.6594929099082947
1759864129796934100,6.30493408203125,0.9518795013427734,3.5316548347473145,0.48013949394226074
1759864129806933200,6.314933349609375,0.42705440521240234,3.4481754302978516,0.09301495552062988
1759864129816932000,6.32493212890625,0.44415950775146484,3.3089406490325928,-0.18641534447669983
1759864129826931200,6.33493115234375,0.7121877670288086,3.2286324501037598,-0.13595658540725708
1759864129836930300,6.344930419921875,0.7207746505737305,3.182377815246582,-0.1375691294670105
1759864129846929400,6.354929443359375,0.5948629379272461,2.6948251724243164,0.21326887607574463
1759864129856928500,6.364928466796875,0.6029834747314453,2.6504952907562256,0.2217685580253601
1759864129866927400,6.37492724609375,0.19867992401123047,2.16912841796875,0.33830705285072327
1759864129876925700,6.38492578125,-0.14007949829101562,1.0425214767456055,0.18858715891838074
1759864129886924000,6.394924072265625,-0.1362600326538086,1.022305965423584,0.19494733214378357
1759864129896923400,6.40492333984375,0.41121578216552734,-0.053589463233947754,-0.22981393337249756
1759864129906921500,6.41492138671875,0.4113025665283203,-0.05349624156951904,-0.23194515705108643
1759864129916920600,6.424920654296875,0.475738525390625,-0.38223695755004883,-0.31602656841278076
1759864129926919400,6.43491943359375,0.19816112518310547,-0.4042997360229492,-0.1876031756401062
1759864129936918300,6.444918212890625,-0.3857145309448242,-0.22398090362548828,0.09072363376617432
1759864129946917400,6.45491748046875,-1.3462514877319336,0.32128846645355225,0.5809653997421265
1759864129956916500,6.46491650390625,-1.3482446670532227,0.329876184463501,0.5854249000549316
1759864129966914800,6.474914794921875,-1.5340423583984375,0.8280816078186035,0.7220614552497864
1759864129976914000,6.484913818359375,-1.312051773071289,1.00352942943573,0.5283753871917725
1759864129986912800,6.494912841796875,-1.3400611877441406,1.3706845045089722,0.6216028332710266
1759864129996911900,6.504911865234375,-1.3609123229980469,1.372520923614502,0.6441061496734619
1759864130006911000,6.514910888671875,-1.4339027404785156,1.506171464920044,0.6094644069671631
1759864130016910000,6.52491015625,-1.439361572265625,1.532524585723877,0.619664192199707
1759864130026909200,6.5349091796875,-1.5784025192260742,1.6649609804153442,0.6849862337112427
1759864130036908300,6.544908203125,-1.6355276107788086,1.7666951417922974,0.8394321799278259
1759864130046907100,6.5549072265625,-1.639084815979004,1.7848061323165894,0.8454297780990601
1759864130056906200,6.56490625,-2.407670021057129,1.8303791284561157,1.0720441341400146
1759864130066905000,6.574905029296875,-2.4093475341796875,1.838379979133606,1.0779448747634888
1759864130076904000,6.584904052734375,-2.9806666374206543,1.7331527471542358,0.9678512215614319
1759864130086902800,6.59490283203125,-2.982405185699463,1.7421836853027344,0.9711250066757202
1759864130096901600,6.604901611328125,-2.9772472381591797,1.8345043659210205,0.6885412931442261
1759864130106900500,6.614900390625,-2.854869842529297,2.0160813331604004,-0.0371832549571991
1759864130116899300,6.6248994140625,-2.8568973541259766,2.027104139328003,-0.034567952156066895
1759864130126898000,6.63489794921875,-2.801389217376709,2.087709426879883,-0.1452609896659851
1759864130136896800,6.644896728515625,-2.7028870582580566,2.134451389312744,-0.16664652526378632
1759864130146895400,6.654895263671875,-2.3221940994262695,2.1068429946899414,-0.17492204904556274
1759864130156894200,6.664894287109375,-2.3250036239624023,2.1230430603027344,-0.17324680089950562
1759864130166892800,6.674892822265625,-1.3963603973388672,2.287844181060791,-0.2032441794872284
1759864130176892400,6.684892333984375,-1.3981609344482422,2.299252986907959,-0.2059071958065033
1759864130186891800,6.694891845703125,-1.240523338317871,2.3594484329223633,-0.21743322908878326
1759864130196890400,6.704890380859375,-1.1988754272460938,2.664618730545044,-0.019461870193481445
1759864130206890000,6.714889892578125,-1.1968870162963867,2.6513562202453613,-0.013357430696487427
1759864130216888800,6.724888916015625,-0.9740495681762695,2.940617084503174,0.4026939272880554
1759864130226887700,6.7348876953125,-0.6168622970581055,3.177879810333252,0.4111294746398926
1759864130236886500,6.744886474609375,-0.6136989593505859,3.1573359966278076,0.4223547577857971
1759864130246885400,6.754885498046875,-0.4279794692993164,3.6585516929626465,0.41335707902908325
1759864130256884000,6.764884033203125,-0.37596702575683594,3.7556986808776855,0.41317838430404663
1759864130266883600,6.774883544921875,-0.1017141342163086,3.726351737976074,0.48931044340133667
1759864130276882200,6.784882080078125,-0.0989532470703125,3.709751605987549,0.4979839622974396
1759864130286881000,6.794881103515625,0.6904382705688477,3.3879446983337402,0.5372933149337769
1759864130296879900,6.8048798828125,1.1223325729370117,3.2071354389190674,0.47158241271972656
1759864130306878500,6.81487841796875,1.1228952407836914,3.2036380767822266,0.4745822250843048
1759864130316877300,6.824877197265625,1.8706188201904297,3.3697023391723633,0.1679185926914215
1759864130326876000,6.8348759765625,1.8772249221801758,3.795927047729492,0.12077575922012329
1759864130336874800,6.844874755859375,1.8806390762329102,3.778075695037842,0.11835786700248718
1759864130346873600,6.85487353515625,1.4880075454711914,4.179088592529297,-0.057534486055374146
1759864130356872200,6.8648720703125,0.9808425903320312,3.995929718017578,-0.551701545715332
1759864130366871000,6.87487109375,1.081167221069336,3.6051409244537354,-0.4620763063430786
1759864130376870000,6.884869873046875,1.541717529296875,2.9262404441833496,-0.28225401043891907
1759864130386868500,6.894868408203125,1.9510307312011719,2.2839407920837402,-0.08226920664310455
1759864130396867300,6.904867431640625,1.9536571502685547,2.2703866958618164,-0.0784720778465271
1759864130406866200,6.9148662109375,1.6466474533081055,2.072601318359375,0.4170757532119751
1759864130416864800,6.92486474609375,0.9801292419433594,1.820536494255066,0.23146425187587738
1759864130426863600,6.934863525390625,0.9875822067260742,1.7861332893371582,0.22124901413917542
1759864130436862200,6.9448623046875,0.4995918273925781,1.5863637924194336,-0.14494192600250244
1759864130446861000,6.954861083984375,0.2866697311401367,1.223050594329834,-0.3851814270019531
1759864130456859600,6.964859619140625,-0.3380565643310547,0.6639294624328613,-0.751887321472168
1759864130466858500,6.9748583984375,-0.6682767868041992,0.5051999092102051,-0.6716664433479309
1759864130476857300,6.984857421875,-1.0491352081298828,0.4831368923187256,-0.30049028992652893
1759864130486856000,6.99485595703125,-1.0429716110229492,0.45883917808532715,-0.31821751594543457
1759864130496854800,7.004854736328125,-1.4617547988891602,0.8238973617553711,0.3170183002948761
1759864130506853600,7.014853515625,-1.680840015411377,0.9398748874664307,0.5172750353813171
1759864130516852200,7.024852294921875,-1.6788287162780762,0.9364349842071533,0.4876526892185211
1759864130526851000,7.03485107421875,-1.8413705825805664,0.9886031150817871,0.6550103425979614
1759864130536849700,7.044849609375,-2.0034852027893066,0.8331825733184814,0.8699527978897095
1759864130546848500,7.0548486328125,-1.871016502380371,0.7057769298553467,0.7035770416259766
1759864130556847000,7.06484716796875,-1.8774042129516602,0.7360689640045166,0.6927058696746826
1759864130566846000,7.074845947265625,-1.5458288192749023,0.7099738121032715,0.38560256361961365
1759864130576844500,7.084844482421875,-1.2629919052124023,0.814558744430542,-0.4660240411758423
1759864130586843100,7.094843017578125,-1.2717790603637695,0.8547437191009521,-0.4640839397907257
1759864130596842000,7.104842041015625,-1.6720194816589355,0.9806668758392334,-1.2195059061050415
1759864130606840800,7.1148408203125,-1.6783509254455566,1.009961724281311,-1.2151216268539429
1759864130616839400,7.12483935546875,-2.172069549560547,1.3434053659439087,-1.4903594255447388
1759864130626838300,7.13483837890625,-2.1765708923339844,1.3645575046539307,-1.4862226247787476
1759864130636837000,7.144837158203125,-2.324171543121338,1.589255928993225,-1.5210647583007812
1759864130646835700,7.154835693359375,-2.662815570831299,1.931376576423645,-1.3308420181274414
1759864130656834600,7.16483447265625,-2.7399797439575195,2.1222989559173584,-1.1992077827453613
1759864130666833200,7.174833251953125,-2.7427663803100586,2.134993553161621,-1.1929537057876587
1759864130676832000,7.18483203125,-2.831760883331299,2.4085841178894043,-1.0371226072311401
1759864130686830800,7.194830810546875,-2.7103633880615234,2.544828414916992,-1.026727557182312
1759864130696829400,7.204829345703125,-2.7139205932617188,2.561420440673828,-1.0183523893356323
1759864130706828300,7.214828369140625,-2.231882095336914,2.788558006286621,-1.3083369731903076
1759864130716827000,7.224826904296875,-2.2363433837890625,2.8097548484802246,-1.297031283378601
1759864130726825700,7.23482568359375,-1.8772497177124023,2.931058406829834,-1.492419719696045
1759864130736824600,7.244824462890625,-0.9771480560302734,2.907358169555664,-1.3438103199005127
1759864130746823200,7.2548232421875,-0.539057731628418,2.7068772315979004,-1.2590439319610596
1759864130756822000,7.264822021484375,0.06678009033203125,2.55901837348938,-1.1473138332366943
1759864130766820900,7.27482080078125,0.8163185119628906,2.380476951599121,-0.9963067770004272
1759864130776819500,7.2848193359375,1.3412017822265625,2.5113959312438965,-0.7429609298706055
1759864130786818300,7.294818359375,1.6446714401245117,2.9059793949127197,-0.5046635866165161
1759864130796817200,7.304817138671875,1.7465200424194336,3.3040826320648193,-0.20128850638866425
1759864130806815700,7.314815673828125,1.656477928161621,3.6250929832458496,0.11694252490997314
1759864130816814600,7.324814697265625,1.369537353515625,3.8323440551757812,0.41464632749557495
1759864130826813200,7.334813232421875,1.0888385772705078,3.8635385036468506,0.5990883111953735
1759864130836812000,7.34481201171875,1.0936031341552734,3.834190845489502,0.6110955476760864
1759864130846811000,7.354810791015625,1.0547571182250977,3.5495057106018066,0.8494400382041931
1759864130856809700,7.364809814453125,1.1584482192993164,3.496476650238037,0.8963605761528015
1759864130866808600,7.37480859375,1.175130844116211,3.68525767326355,1.036564588546753
1759864130876807400,7.384807373046875,1.1771230697631836,3.6725008487701416,1.049957036972046
1759864130886805500,7.394805419921875,0.8413333892822266,3.7115297317504883,1.1596869230270386
1759864130896803600,7.404803466796875,0.7470006942749023,3.4247591495513916,1.0838584899902344
1759864130906802400,7.414802490234375,0.7478580474853516,3.418849468231201,1.0946800708770752
1759864130916801300,7.42480126953125,0.7455434799194336,2.392045021057129,0.8453325033187866
1759864130926799600,7.434799560546875,0.7447834014892578,2.394717216491699,0.8578277230262756
1759864130936797700,7.444797607421875,1.179245948791504,0.982789158821106,1.108527660369873
1759864130946796000,7.454796142578125,1.1780986785888672,0.9873594045639038,1.1250653266906738
1759864130956795000,7.464794921875,0.9623241424560547,0.7501251697540283,1.2875490188598633
1759864130966793700,7.474793701171875,0.5752620697021484,0.6936930418014526,1.112715721130371
1759864130976792600,7.48479248046875,0.5767021179199219,0.6843281984329224,1.1431156396865845
1759864130986791400,7.49479150390625,0.1662006378173828,0.29784703254699707,0.5458112955093384
1759864130996790300,7.504790283203125,0.23381900787353516,0.0379565954208374,0.3884429335594177
1759864131006789000,7.5147890625,0.22404193878173828,-0.16680586338043213,0.2853766083717346
1759864131016788000,7.5247880859375,0.09186649322509766,-0.1395578384399414,0.1409752070903778
1759864131026786800,7.534786865234375,0.09168624877929688,-0.13749384880065918,0.1701202690601349
1759864131036785700,7.54478564453125,-0.1974334716796875,0.15038955211639404,-0.11012107133865356
1759864131046784500,7.554784423828125,-1.381093978881836,0.828544020652771,-0.3121403157711029
1759864131056783400,7.564783447265625,-1.379042625427246,0.8187307119369507,-0.29863786697387695
1759864131066782200,7.5747822265625,-2.3347949981689453,1.12063467502594,-0.38250932097435
1759864131076780300,7.5847802734375,-2.333700180053711,1.1154180765151978,-0.3765450119972229
1759864131086779100,7.594779052734375,-2.4605579376220703,1.2327752113342285,-0.17518948018550873
1759864131096778000,7.604778076171875,-2.42311954498291,1.1700302362442017,-0.036697372794151306
1759864131106776800,7.61477685546875,-2.424562454223633,1.176779866218567,-0.04640723764896393
1759864131116775700,7.624775634765625,-2.4116640090942383,1.152038812637329,0.050894901156425476
1759864131126774500,7.6347744140625,-2.6737685203552246,1.149261236190796,0.2245573103427887
1759864131136773400,7.6447734375,-2.8299856185913086,1.2180203199386597,0.2645265460014343
1759864131146772200,7.654772216796875,-2.9712514877319336,1.2578145265579224,0.2611125707626343
1759864131156771000,7.66477099609375,-3.1718053817749023,1.3166879415512085,0.24199214577674866
1759864131166770000,7.67477001953125,-3.271407127380371,1.4815880060195923,0.22688129544258118
1759864131176768500,7.6847685546875,-3.347008228302002,1.6391544342041016,0.27341142296791077
1759864131186768000,7.694767822265625,-3.3582658767700195,1.7360929250717163,0.32356494665145874
1759864131196767500,7.704767578125,-3.358208656311035,1.7359561920166016,0.3139381408691406
1759864131206766300,7.714766357421875,-3.2489495277404785,1.882081389427185,0.2912657856941223
1759864131216765000,7.724764892578125,-3.030381679534912,2.1213150024414062,0.14639680087566376
1759864131226764000,7.734763916015625,-2.733372211456299,2.335038661956787,-0.15957513451576233
1759864131236763600,7.744763671875,-2.3719191551208496,2.504446506500244,-0.4153789281845093
1759864131246763000,7.754762939453125,-1.5724239349365234,2.5906009674072266,-0.72517991065979
1759864131256761900,7.764761962890625,-1.575185775756836,2.606017589569092,-0.7331297993659973
1759864131266760700,7.7747607421875,-0.5510530471801758,2.5797226428985596,-0.4011806845664978
1759864131276759300,7.78475927734375,0.0036745071411132812,2.6024179458618164,-0.034900203347206116
1759864131286758100,7.794758056640625,0.5013608932495117,2.6901373863220215,0.160244420170784
1759864131296757000,7.804757080078125,0.4996767044067383,2.700486660003662,0.14976496994495392
1759864131306755600,7.814755615234375,1.1786375045776367,2.996649742126465,0.42756909132003784
1759864131316754400,7.82475439453125,1.2366647720336914,3.1665258407592773,0.5257113575935364
1759864131326753300,7.834753173828125,1.2507333755493164,3.2273292541503906,0.5568546652793884
1759864131336751900,7.844751953125,1.25384521484375,3.210181713104248,0.5548173785209656
1759864131346750700,7.854750732421875,1.3364152908325195,3.140300750732422,0.6094330549240112
1759864131356749300,7.864749267578125,1.6296367645263672,3.003347396850586,0.41908666491508484
1759864131366748200,7.874748046875,1.7692832946777344,2.997866153717041,0.3384906053543091
1759864131376747500,7.88474755859375,1.7722606658935547,2.9815587997436523,0.3427017331123352
1759864131386746400,7.894746337890625,1.834951400756836,3.098228931427002,0.35075628757476807
1759864131396745200,7.9047451171875,1.4618196487426758,3.706130027770996,0.38067179918289185
1759864131406743800,7.914743896484375,1.1197586059570312,3.7327544689178467,0.3877217769622803
1759864131416742700,7.92474267578125,0.8347196578979492,3.218196392059326,0.3501215875148773
1759864131426741500,7.934741455078125,0.7950859069824219,2.3405709266662598,0.2655067443847656
1759864131436773400,7.9447734375,0.7942218780517578,2.3443284034729004,0.273843914270401
1759864131456837600,7.964837646484375,1.48944091796875,0.6691204309463501,-0.42612341046333313
1759864131466869800,7.974869873046875,1.4181089401245117,0.6198173761367798,-0.876987874507904
1759864131476901600,7.984901611328125,1.1941261291503906,0.6875417232513428,-0.8846047520637512
1759864131486933800,7.994933837890625,0.7107925415039062,0.8617901802062988,-0.5621785521507263
1759864131496966000,8.0049658203125,0.7104024887084961,0.8640233278274536,-0.5636856555938721
1759864131506998000,8.014998046875,-0.5624580383300781,1.3670321702957153,-0.2584497928619385
1759864131517030100,8.025030029296875,-0.9708395004272461,1.409409523010254,-0.2880520820617676
1759864131527062300,8.035062255859375,-1.106917381286621,1.2756578922271729,-0.4420241713523865
1759864131537094400,8.045094482421876,-1.1075572967529297,1.2792346477508545,-0.443525493144989
1759864131547126300,8.055126220703125,-0.9582414627075195,1.383409023284912,-0.6705434322357178
1759864131557158400,8.065158447265626,-1.160989761352539,1.4476121664047241,-0.7210853099822998
1759864131567190500,8.0751904296875,-1.1622247695922852,1.4546924829483032,-0.7248741388320923
1759864131577222400,8.085222412109376,-1.3642330169677734,1.4743627309799194,-0.7844745516777039
1759864131587254500,8.095254638671875,-1.618769645690918,1.3928278684616089,-0.7592552304267883
1759864131597286700,8.10528662109375,-1.8638811111450195,1.2619973421096802,-0.6323124766349792
1759864131607318500,8.115318603515625,-1.9273066520690918,1.1591442823410034,-0.5970978140830994
1759864131617350700,8.1253505859375,-1.9287848472595215,1.1682097911834717,-0.6052230596542358
1759864131627382800,8.1353828125,-1.9688239097595215,1.0351929664611816,-0.4486440420150757
1759864131637414700,8.14541455078125,-2.0903820991516113,0.7857122421264648,-0.1107855960726738
1759864131647446800,8.15544677734375,-2.250248432159424,0.7999532222747803,-0.08598024398088455
1759864131657479000,8.16547900390625,-2.3167858123779297,0.8100343942642212,-0.07725875079631805
1759864131667511000,8.175510986328124,-2.2375946044921875,0.9944635629653931,-0.01524798572063446
1759864131677543000,8.18554296875,-2.108649730682373,1.179598093032837,0.0385378897190094
1759864131687575000,8.195574951171874,-2.1116557121276855,1.1988120079040527,0.02901807427406311
1759864131697607200,8.205607177734375,-1.882225513458252,1.5616050958633423,0.01403006911277771
1759864131707639300,8.215639404296875,-1.884570598602295,1.5767107009887695,0.008418947458267212
1759864131717671400,8.22567138671875,-1.862257480621338,1.7502318620681763,0.1761375367641449
1759864131727703300,8.235703369140625,-1.8631377220153809,1.756388545036316,0.17169436812400818
1759864131737702100,8.2457021484375,-1.9329590797424316,1.8170454502105713,0.21256563067436218
1759864131747701000,8.255700927734376,-1.9019975662231445,1.9601877927780151,0.09029555320739746
1759864131757699600,8.265699462890625,-1.6866888999938965,2.0435049533843994,-0.07729792594909668
1759864131767698400,8.275698486328125,-1.4259109497070312,2.1146349906921387,-0.15919587016105652
1759864131777697000,8.285697021484374,-1.1936473846435547,2.217555284500122,-0.2556433081626892
1759864131787695900,8.29569580078125,-1.1930723190307617,2.213873863220215,-0.2549380660057068
1759864131797694700,8.30569482421875,-1.0648088455200195,2.4398510456085205,-0.3159386217594147
1759864131807693600,8.315693603515625,-1.06280517578125,2.427143096923828,-0.31335124373435974
1759864131817692200,8.325692138671876,-0.6198740005493164,2.7256250381469727,-0.4126702547073364
1759864131827691000,8.33569091796875,-0.26542091369628906,2.8465723991394043,-0.46958333253860474
1759864131837689600,8.345689697265625,0.08669567108154297,3.0419936180114746,-0.48604464530944824
1759864131847688400,8.3556884765625,0.08924007415771484,3.0274128913879395,-0.4882785379886627
1759864131857687300,8.365687255859376,0.42925453186035156,3.138427734375,-0.6312060356140137
1759864131867686000,8.375685791015625,1.1737298965454102,2.901144504547119,-0.80888432264328
1759864131877684700,8.385684814453125,1.4417238235473633,2.6353001594543457,-0.6051422953605652
1759864131887682800,8.395682861328124,1.6668815612792969,2.551687240600586,-0.25820839405059814
1759864131897680600,8.4056806640625,1.6698455810546875,2.5341379642486572,-0.2532865107059479
1759864131907678700,8.4156787109375,1.5967292785644531,2.6594624519348145,0.13959655165672302
1759864131917677600,8.425677490234374,0.6978998184204102,3.274655342102051,0.32149532437324524
1759864131927676200,8.43567626953125,0.19861984252929688,3.388822078704834,0.027825653553009033
1759864131937674500,8.445674560546875,-0.014645576477050781,3.0692214965820312,-0.14071539044380188
1759864131947673300,8.45567333984375,0.03092670440673828,2.4016125202178955,-0.1799561083316803
1759864131957672400,8.46567236328125,0.6388435363769531,1.6466810703277588,-0.2932981848716736
1759864131977670700,8.485670654296875,2.0494775772094727,0.8732819557189941,-0.5064135193824768
1759864131987669500,8.49566943359375,2.0439462661743164,0.900652289390564,-0.45842108130455017
1759864131997668600,8.505668701171874,2.2824087142944336,0.9747309684753418,-0.12116949260234833
1759864132007667700,8.515667724609376,1.599736213684082,0.9947525262832642,0.2100321501493454
1759864132017666800,8.525666748046875,1.6023178100585938,0.9803638458251953,0.25526684522628784
1759864132027666000,8.535666015625,0.026482582092285156,0.8423076868057251,0.8180800676345825
1759864132037664800,8.545664794921874,-0.5313205718994141,0.6018643379211426,1.2292689085006714
1759864132047663900,8.555663818359376,-0.5271186828613281,0.5809988975524902,1.2594735622406006
1759864132057662700,8.565662841796875,-0.8667459487915039,0.3549591302871704,1.8638216257095337
1759864132067661800,8.575661865234375,-0.9207162857055664,0.5061163902282715,1.823851227760315
1759864132077660700,8.58566064453125,-0.9205150604248047,0.5061153173446655,1.8343603610992432
1759864132087659800,8.59565966796875,-0.9587383270263672,0.7436492443084717,1.5798684358596802
1759864132097659000,8.605658935546876,-1.4132986068725586,0.974926233291626,1.2355679273605347
1759864132107658000,8.615657958984375,-1.412642478942871,0.972095251083374,1.2416106462478638
1759864132117656800,8.62565673828125,-1.9769883155822754,1.244293212890625,0.8535729050636292
1759864132127656000,8.635656005859374,-1.9767489433288574,1.2431648969650269,0.8548623323440552
1759864132137655000,8.645655029296876,-2.1784415245056152,1.3199238777160645,0.7447003126144409
1759864132147654100,8.655654052734375,-2.4983229637145996,1.4507681131362915,1.0000619888305664
1759864132157653200,8.6656533203125,-2.653688907623291,1.472011923789978,1.0671348571777344
1759864132167652400,8.67565234375,-2.65639066696167,1.4841094017028809,1.038994312286377
1759864132177651200,8.685651123046876,-2.6831517219543457,1.671926498413086,1.179796576499939
1759864132187651000,8.695651123046876,-2.740706443786621,1.7964383363723755,1.3680635690689087
1759864132197651000,8.70565087890625,-2.797778606414795,1.91195547580719,1.3151930570602417
1759864132207650800,8.71565087890625,-2.7420010566711426,2.047875165939331,0.44949156045913696
1759864132217649700,8.725649658203125,-2.607102394104004,2.0781784057617188,0.18379713594913483
1759864132227648800,8.735648681640624,-2.608565330505371,2.086534261703491,0.18625278770923615
1759864132237647600,8.745647705078126,-2.3920111656188965,2.1277098655700684,0.07850845158100128
1759864132247646000,8.75564599609375,-2.180093288421631,2.2015466690063477,-0.03014371544122696
1759864132257643800,8.765643798828124,-1.9703354835510254,2.2404656410217285,-0.14109870791435242
1759864132267641900,8.775641845703126,-1.633315086364746,2.1479148864746094,-0.2538073658943176
1759864132277640700,8.785640625,-1.274256706237793,2.1339330673217773,-0.2906748652458191
1759864132287639300,8.795639404296875,-0.7420482635498047,2.010247230529785,-0.08418577164411545
1759864132297638100,8.80563818359375,-0.7401351928710938,1.9994220733642578,-0.08134908229112625
1759864132307636700,8.81563671875,-0.2769651412963867,2.023080348968506,0.009352348744869232
1759864132317635600,8.825635498046875,-0.27158069610595703,1.9934344291687012,0.018230505287647247
1759864132327634400,8.835634521484375,-0.5093927383422852,2.4018056392669678,0.032367900013923645
1759864132337633000,8.845633056640626,-0.5012731552124023,2.358863353729248,0.042114801704883575
1759864132347631600,8.855631591796875,-0.6430749893188477,2.6857481002807617,-0.020405955612659454
1759864132357630700,8.865630615234375,-0.621790885925293,3.005568504333496,-0.04690670967102051
1759864132367629600,8.875629638671874,-0.6129465103149414,2.9624085426330566,-0.03573891520500183
1759864132377628400,8.88562841796875,-0.11666488647460938,3.078372001647949,-0.4031309485435486
1759864132387627000,8.895626953125,-0.11003303527832031,3.0478579998016357,-0.38826999068260193
1759864132397625900,8.9056259765625,0.18235206604003906,2.967663049697876,-0.3548114597797394
1759864132407624700,8.915624755859374,0.9469089508056641,2.661318302154541,0.012891784310340881
1759864132417622500,8.92562255859375,0.9479637145996094,2.6569337844848633,0.018457457423210144
1759864132427621400,8.935621337890625,1.912252426147461,3.1938393115997314,0.3467863202095032
1759864132437620200,8.9456201171875,1.9112043380737305,3.198418140411377,0.3436222970485687
1759864132447618800,8.955618896484374,1.3789424896240234,3.721143960952759,0.3786070942878723
1759864132457617700,8.96561767578125,1.0788917541503906,3.3393969535827637,0.37495318055152893
1759864132467616500,8.975616455078125,1.0958986282348633,2.605195999145508,0.3602710962295532
1759864132477615000,8.985614990234374,1.7945871353149414,1.5773615837097168,0.13571524620056152
1759864132487614000,8.995614013671876,3.0589895248413086,0.8235781192779541,-0.11301271617412567
1759864132497612500,9.005612548828125,3.0467681884765625,0.884840726852417,-0.10666531324386597
1759864132507611400,9.015611328125,4.459286689758301,0.7355972528457642,-0.23514008522033691
1759864132517610200,9.0256103515625,3.8856515884399414,1.1603872776031494,-0.27242615818977356
1759864132527608800,9.03560888671875,3.882054328918457,1.1777875423431396,-0.28960663080215454
1759864132537608400,9.0456083984375,2.755277633666992,1.4752614498138428,-0.3717033863067627
1759864132547607800,9.05560791015625,1.540170669555664,1.6249229907989502,-0.3484809994697571
1759864132557607200,9.065607177734375,0.12720203399658203,1.2463608980178833,-0.5615241527557373
1759864132567606500,9.0756064453125,0.1313333511352539,1.224183440208435,-0.5700109004974365
1759864132577605400,9.08560546875,-0.18822383880615234,0.8647695779800415,-0.5039635300636292
1759864132587604200,9.095604248046875,-0.18433666229248047,0.8442350625991821,-0.5151045918464661
1759864132597602800,9.105602783203125,-1.3333511352539062,0.9691078662872314,-0.43656641244888306
1759864132607601700,9.1156015625,-1.8876152038574219,0.9529355764389038,-0.35947921872138977
1759864132617600300,9.125600341796876,-1.881047248840332,0.9201251268386841,-0.381137877702713
1759864132627599000,9.13559912109375,-2.6427879333496094,0.9252774715423584,-0.1295580267906189
1759864132637598000,9.145597900390625,-2.98067045211792,0.8063673973083496,-0.040350716561079025
1759864132647596500,9.155596435546874,-3.251699924468994,0.657973051071167,-0.007745207287371159
1759864132657595400,9.165595458984376,-3.245635509490967,0.6303796768188477,-0.023164968937635422
1759864132667594200,9.17559423828125,-3.2575082778930664,0.3978080749511719,0.04387122020125389
1759864132677592800,9.1855927734375,-3.1725568771362305,0.29834604263305664,0.05673808231949806
1759864132687591700,9.195591796875,-3.0408124923706055,0.28530335426330566,-0.07210668921470642
1759864132697590300,9.20559033203125,-2.895313262939453,0.32776546478271484,-0.17096133530139923
1759864132707589000,9.215589111328125,-2.8505868911743164,0.4455721378326416,-0.28837037086486816
1759864132717588500,9.22558837890625,-2.884835720062256,0.6807172298431396,-0.397355854511261
1759864132727587000,9.235587158203124,-2.883115291595459,0.6738412380218506,-0.4111475944519043
1759864132737586000,9.2455859375,-2.9224424362182617,1.137639045715332,-0.5481043457984924
1759864132747584500,9.25558447265625,-2.9219112396240234,1.135704755783081,-0.5547890663146973
1759864132757583400,9.265583251953124,-2.707080364227295,1.2705144882202148,-0.629550576210022
1759864132767582000,9.27558203125,-2.308746337890625,1.4807548522949219,-0.6903371810913086
1759864132777580800,9.285580810546875,-1.7047171592712402,1.6942479610443115,-0.6325597763061523
1759864132787579400,9.295579345703125,-1.4906644821166992,1.7292418479919434,-0.6732577085494995
1759864132807577000,9.3155771484375,-0.8559274673461914,1.6566672325134277,-0.5809395909309387
1759864132817575700,9.32557568359375,-0.3327751159667969,1.7809865474700928,-0.6973370909690857
1759864132827574500,9.335574462890625,0.25974369049072266,1.996516466140747,-0.9548369646072388
1759864132837573400,9.345573486328124,0.7596292495727539,2.285356044769287,-1.1644703149795532
1759864132847572000,9.355572021484376,1.0049934387207031,2.5597469806671143,-1.031072974205017
1759864132857570800,9.36557080078125,1.054208755493164,2.835232973098755,-0.778536319732666
1759864132867569400,9.3755693359375,0.8525056838989258,3.0527234077453613,-0.4881095588207245
1759864132877568000,9.385568115234374,0.8618030548095703,3.0125722885131836,-0.4721677303314209
1759864132887566600,9.395566650390625,0.4944887161254883,3.0429179668426514,-0.22063598036766052
1759864132897565400,9.4055654296875,0.27838897705078125,3.029709577560425,-0.06634689122438431
1759864132907564300,9.415564208984375,0.4829139709472656,2.7955527305603027,0.08244316279888153
1759864132917563000,9.42556298828125,0.49211788177490234,2.7592685222625732,0.09672857820987701
1759864132927561700,9.435561767578125,1.1488866806030273,2.3738274574279785,0.2085418403148651
1759864132937560600,9.445560546875,1.1562833786010742,2.3455164432525635,0.21759763360023499
1759864132947559200,9.45555908203125,1.401052474975586,2.2299697399139404,0.30426478385925293
1759864132957558000,9.46555810546875,1.0773324966430664,2.593657970428467,0.3031713366508484
1759864132967556600,9.475556640625,1.0880088806152344,2.554157018661499,0.3025026321411133
1759864132977555500,9.485555419921875,0.0867919921875,2.610382080078125,0.18258410692214966
1759864132987554300,9.49555419921875,-0.13701629638671875,2.301187515258789,0.22568565607070923
1759864132997553200,9.50555322265625,-0.1284656524658203,2.271209716796875,0.23247072100639343
1759864133007552000,9.515552001953125,0.4231758117675781,1.441882610321045,0.2654340863227844
1759864133017550800,9.52555078125,0.6423749923706055,1.1756713390350342,0.33938634395599365
1759864133027549700,9.5355498046875,0.6787347793579102,0.9605240821838379,0.4376417100429535
1759864133037548500,9.545548583984376,0.44219398498535156,0.797921895980835,0.5935589671134949
1759864133047547600,9.555547607421875,0.0743417739868164,0.5453755855560303,0.8510485887527466
1759864133057546500,9.56554638671875,-0.36312007904052734,0.4249999523162842,1.016338586807251
1759864133067545300,9.57554541015625,-0.6290969848632812,0.3243682384490967,1.0859452486038208
1759864133077544200,9.585544189453126,-0.6286392211914062,0.32291197776794434,1.0878353118896484
1759864133087543000,9.59554296875,-0.7308387756347656,0.16101408004760742,1.2431880235671997
1759864133097542000,9.6055419921875,-0.756016731262207,0.06588292121887207,1.3910269737243652
1759864133107540700,9.615540771484374,-0.5050506591796875,0.4096951484680176,1.4636622667312622
1759864133117539600,9.62553955078125,-0.5109081268310547,0.43024301528930664,1.4685943126678467
1759864133127538400,9.635538330078125,-0.8709907531738281,0.7019529342651367,1.1934080123901367
1759864133137537300,9.645537353515625,-0.8765325546264648,0.7216994762420654,1.1976964473724365
1759864133147536100,9.6555361328125,-1.1240806579589844,0.7158639430999756,1.1286932229995728
1759864133157535000,9.665534912109376,-1.3936309814453125,0.5632965564727783,1.041503667831421
1759864133167533800,9.675533935546875,-1.3235034942626953,0.4023756980895996,0.9748220443725586
1759864133177533200,9.685533203125,-1.1604719161987305,0.42519402503967285,0.927304208278656
1759864133207527400,9.71552734375,-1.6937551498413086,0.8082451820373535,0.9562478065490723
1759864133217526300,9.7255263671875,-1.6927900314331055,0.8048248291015625,0.9590696692466736
1759864133227525000,9.735525146484376,-2.6589975357055664,1.077263355255127,1.0866245031356812
1759864133237524000,9.74552392578125,-3.08986234664917,1.078679084777832,0.9574331641197205
1759864133247522600,9.7555224609375,-3.24052095413208,1.1922543048858643,0.6434558629989624
1759864133257521400,9.765521484375,-3.2364325523376465,1.177333116531372,0.6434234976768494
1759864133267520300,9.775520263671876,-3.159149169921875,1.2116363048553467,0.280922532081604
1759864133277519000,9.78551904296875,-3.0419106483459473,1.2845368385314941,0.06839242577552795
1759864133287518000,9.79551806640625,-2.822159767150879,1.3974804878234863,-0.32184892892837524
1759864133297516800,9.805516845703124,-2.5454978942871094,1.5054409503936768,-0.3330534100532532
1759864133307515600,9.815515625,-2.3628978729248047,1.493938684463501,-0.13605958223342896
1759864133317514200,9.82551416015625,-2.211909770965576,1.4984910488128662,-0.014323487877845764
1759864133327513000,9.83551318359375,-1.9394025802612305,1.6078665256500244,-0.05389738082885742
1759864133337511700,9.84551171875,-1.940720558166504,1.6123325824737549,-0.05765490233898163
1759864133347510500,9.855510498046876,-1.68672513961792,1.7056822776794434,-0.1517222374677658
1759864133357509000,9.865509033203125,-1.1893424987792969,1.9668617248535156,-0.21882086992263794
1759864133367508000,9.875508056640625,-1.1929330825805664,1.9787368774414062,-0.23928534984588623
1759864133377506600,9.885506591796876,-0.4546232223510742,2.3752551078796387,0.22525347769260406
1759864133387505000,9.8955048828125,-0.45806217193603516,2.387002944946289,0.20425643026828766
1759864133397503500,9.90550341796875,-0.18763446807861328,2.560831069946289,0.5183679461479187
1759864133407502300,9.91550244140625,0.1053152084350586,2.8174855709075928,0.766382098197937
1759864133417501000,9.9255009765625,0.10423564910888672,2.8212051391601562,0.7537170052528381
1759864133427499000,9.9354990234375,0.27036380767822266,2.8982648849487305,0.7129185199737549
1759864133437497000,9.9454970703125,1.0029983520507812,2.921346664428711,0.4343228340148926
1759864133447496000,9.955495849609376,1.5289192199707031,2.878141164779663,0.18179026246070862
1759864133457494500,9.96549462890625,1.5251216888427734,2.8923869132995605,0.16798844933509827
1759864133467493400,9.975493408203125,2.804806709289551,2.39851450920105,-0.009739814326167107
1759864133477492000,9.985491943359374,2.916027069091797,2.4467244148254395,-0.08970452845096588
1759864133487491600,9.99549169921875,2.4190196990966797,2.9273269176483154,-0.3305990695953369
1759864133497491000,10.005490966796875,2.428257942199707,2.8928608894348145,-0.34071898460388184
1759864133507490600,10.015490478515625,0.5799083709716797,3.577603340148926,-0.4628402888774872
1759864133517489200,10.0254892578125,-0.06379127502441406,3.5879909992218018,-0.2056923806667328
1759864133527488000,10.035488037109374,-0.3341341018676758,3.317782163619995,0.1425212025642395
1759864133537486800,10.04548681640625,-0.01351165771484375,2.7447848320007324,0.41768962144851685
1759864133547485700,10.055485595703125,0.6259078979492188,2.300034284591675,0.5135391354560852
1759864133557484500,10.065484619140625,1.1174449920654297,1.9987566471099854,0.28141307830810547
1759864133567483400,10.0754833984375,1.3886642456054688,1.5073142051696777,-0.27686449885368347
1759864133577482000,10.08548193359375,1.3022089004516602,0.8777720928192139,-0.6438875794410706
1759864133587480800,10.095480712890625,1.103179931640625,0.375291109085083,-0.8887865543365479
1759864133597479400,10.1054794921875,0.8009872436523438,-0.08338093757629395,-1.1453073024749756
1759864133607478300,10.115478271484376,0.6703062057495117,-0.5080862045288086,-1.31638503074646
1759864133617476900,10.125476806640625,0.5863885879516602,-0.7304036617279053,-1.3834915161132812
1759864133627475700,10.135475830078125,0.2842111587524414,-0.6425697803497314,-1.214606761932373
1759864133637474600,10.145474609375,-0.2467937469482422,-0.2611403465270996,-0.9311518669128418
1759864133647473200,10.15547314453125,-0.955958366394043,0.20436477661132812,-0.5848910808563232
1759864133657472000,10.165471923828125,-1.6282329559326172,0.5518732070922852,-0.3044910430908203
1759864133667470800,10.175470947265625,-2.276724338531494,0.6701951026916504,-0.07915157079696655
1759864133677469400,10.185469482421874,-2.617889881134033,0.7241888046264648,0.03924991935491562
1759864133687468800,10.19546875,-2.619572162628174,0.7301738262176514,0.02656061202287674
1759864133697467600,10.205467529296875,-2.691689968109131,0.7879531383514404,0.07654006779193878
1759864133707466200,10.21546630859375,-2.484543800354004,0.729522705078125,0.06937360763549805
1759864133717465000,10.225465087890624,-2.076000213623047,0.6590714454650879,0.11803396046161652
1759864133727464400,10.23546435546875,-1.421332836151123,0.44439029693603516,0.19456949830055237
1759864133737463800,10.2454638671875,-1.4314284324645996,0.47855615615844727,0.20755012333393097
1759864133747462700,10.255462646484375,-1.246220588684082,0.43649816513061523,0.0032590776681900024
1759864133757461200,10.265461181640624,-1.207880973815918,0.4587724208831787,-0.340290367603302
1759864133767460000,10.275460205078126,-1.323451042175293,0.4657564163208008,-0.5596208572387695
1759864133777458700,10.285458740234375,-1.6149201393127441,0.47803544998168945,-0.6147948503494263
1759864133787457500,10.29545751953125,-2.028141498565674,0.6161139011383057,-0.5554665923118591
1759864133797456400,10.305456298828124,-2.0035595893859863,0.7699151039123535,-0.48654842376708984
1759864133807455000,10.315455078125,-1.9698710441589355,0.9782495498657227,-0.3507254123687744
1759864133817453600,10.32545361328125,-1.9124741554260254,1.22353196144104,-0.14851993322372437
1759864133827452400,10.335452392578125,-1.9649395942687988,1.3243355751037598,-0.06829378753900528
1759864133837451000,10.345450927734374,-1.942713737487793,1.4570505619049072,-0.03464344143867493
1759864133847449900,10.355449951171876,-1.9466686248779297,1.4719831943511963,-0.039536550641059875
1759864133857448700,10.36544873046875,-1.7566399574279785,1.5562353134155273,-0.0775490254163742
1759864133867447300,10.375447265625,-1.6455249786376953,1.5899326801300049,-0.131417915225029
1759864133877446100,10.385446044921874,-1.3905620574951172,1.7091357707977295,-0.20843195915222168
1759864133887445000,10.395445068359376,-1.037247657775879,1.825317144393921,-0.27136048674583435
1759864133897443600,10.405443603515625,-0.6620101928710938,2.0048177242279053,-0.33116278052330017
1759864133907442400,10.4154423828125,-0.6640768051147461,2.0130372047424316,-0.33730852603912354
1759864133917441300,10.425441162109376,-0.3318796157836914,2.125741958618164,-0.43269896507263184
1759864133927440000,10.43543994140625,0.20785140991210938,2.3733668327331543,-0.5948169231414795
1759864133937438700,10.445438720703125,0.21056079864501953,2.3631649017333984,-0.6018736362457275
1759864133947437300,10.455437255859374,0.46599483489990234,2.681039571762085,-0.8372453451156616
1759864133957436200,10.465436279296876,0.5667896270751953,2.7938735485076904,-0.9432578086853027
1759864133967435000,10.47543505859375,0.6133098602294922,2.7769458293914795,-1.0194207429885864
1759864133977433600,10.48543359375,0.6194915771484375,2.7539496421813965,-1.023608684539795
1759864133987432400,10.495432373046874,0.8314208984375,2.4299466609954834,-0.7762184739112854
1759864133997431300,10.505431396484376,1.1241388320922852,1.9500064849853516,-0.6014065742492676
1759864134007430000,10.515429931640625,1.1292610168457031,1.9313116073608398,-0.6021266579627991
1759864134017428700,10.5254287109375,1.6804819107055664,1.1291120052337646,-0.2662101984024048
1759864134027427600,10.535427490234374,1.6876029968261719,1.1037302017211914,-0.2701900005340576
1759864134037426400,10.545426513671876,1.3582754135131836,1.159590721130371,-0.268245130777359
1759864134047425300,10.55542529296875,0.1875896453857422,1.7846124172210693,-0.19074133038520813
1759864134057424100,10.565424072265625,0.204925537109375,1.7256288528442383,-0.19372963905334473
1759864134067423000,10.575423095703124,-0.4826517105102539,2.240766763687134,-0.11576345562934875
1759864134077422000,10.585422119140626,-1.417508602142334,2.764042377471924,-0.48096489906311035
1759864134087421000,10.5954208984375,-1.4024243354797363,2.7159838676452637,-0.4823882281780243
1759864134097420000,10.605419921875,-1.3014822006225586,2.682131052017212,-0.4725796580314636
1759864134107419100,10.615419189453124,-0.3594703674316406,2.158672332763672,0.2164095789194107
1759864134117418200,10.625418212890626,-0.3624391555786133,2.1678624153137207,0.21768763661384583
1759864134127417300,10.635417236328125,0.22037506103515625,1.3757891654968262,0.6929391622543335
1759864134137416400,10.64541650390625,1.7588176727294922,-0.31580424308776855,1.2589120864868164
1759864134147415600,10.65541552734375,2.5378761291503906,-0.8911170959472656,1.1476609706878662
1759864134157414700,10.66541455078125,2.892970085144043,-1.0766630172729492,1.0028831958770752
1759864134167413800,10.675413818359376,2.6498842239379883,-0.8060715198516846,0.8961594700813293
1759864134177412900,10.685412841796875,1.812993049621582,-0.24733757972717285,0.7975128293037415
1759864134187412000,10.695411865234375,0.7848596572875977,0.238480806350708,0.5436737537384033
1759864134197410300,10.705410400390624,0.7854642868041992,0.23591089248657227,0.5499086380004883
1759864134207408400,10.715408447265625,-0.042481422424316406,0.582097053527832,0.41650187969207764
1759864134217406700,10.72540673828125,-1.6287140846252441,1.1294167041778564,-0.044982463121414185
1759864134227404800,10.73540478515625,-1.6258597373962402,1.1188910007476807,-0.03286752104759216
1759864134237404200,10.745404052734376,-2.0674171447753906,1.2621560096740723,-0.23512408137321472
1759864134247403300,10.7554033203125,-2.3476715087890625,1.339115858078003,-0.4249255061149597
1759864134257401900,10.76540185546875,-2.5309438705444336,1.4325346946716309,-0.5459315180778503
1759864134267401000,10.77540087890625,-2.8753061294555664,1.4665119647979736,-0.5257643461227417
1759864134277400000,10.785400146484376,-3.1002702713012695,1.3631339073181152,-0.5128719210624695
1759864134287399200,10.795399169921875,-3.0166544914245605,1.2250192165374756,-0.4842347502708435
1759864134297398000,10.80539794921875,-2.81858491897583,1.0621886253356934,-0.31962525844573975
1759864134307397000,10.815397216796875,-2.8217883110046387,1.0746526718139648,-0.3347659409046173
1759864134317396200,10.825396240234374,-2.556333541870117,0.8339560031890869,0.0945298969745636
1759864134327395300,10.835395263671876,-2.558002471923828,0.8411178588867188,0.08133301138877869
1759864134337394400,10.84539453125,-2.625392436981201,0.7815160751342773,0.17338496446609497
1759864134347393300,10.855393310546875,-3.02205228805542,0.7419929504394531,-0.10585887730121613
1759864134357392100,10.86539208984375,-3.184011459350586,0.7262609004974365,-0.3876960575580597
1759864134367391000,10.875390869140626,-3.102578639984131,0.701348066329956,-0.7258793115615845
1759864134377389800,10.885389892578125,-2.831394672393799,0.756521463394165,-0.7110615372657776
1759864134387388200,10.89538818359375,-2.835218906402588,0.7706613540649414,-0.716362476348877
1759864134397386800,10.90538671875,-1.8448262214660645,0.8817298412322998,-0.09109452366828918
1759864134407385600,10.915385498046875,-1.4563555717468262,1.1830835342407227,0.2167617380619049
1759864134417384400,10.925384521484375,-1.2636613845825195,1.5091440677642822,0.44467511773109436
1759864134427383000,10.935383056640624,-1.2684478759765625,1.5270771980285645,0.44085729122161865
1759864134437382000,10.9453818359375,-1.259958267211914,2.2299752235412598,1.0876363515853882
1759864134447380500,10.95538037109375,-1.2626361846923828,2.2401106357574463,1.085622787475586
1759864134457379300,10.96537939453125,-1.2129907608032227,2.5073399543762207,1.1389939785003662
1759864134467378000,10.9753779296875,-0.4417448043823242,2.814880609512329,0.9344004392623901
1759864134477376800,10.985376708984376,-0.4478616714477539,2.835927963256836,0.9480232000350952
1759864134487375600,10.995375732421875,1.0077276229858398,3.246696949005127,0.8952668309211731
1759864134497375000,11.005375,1.7087745666503906,3.384054660797119,1.0091602802276611
1759864134507374600,11.01537451171875,2.25209903717041,3.3845479488372803,1.000683069229126
1759864134517374200,11.025374267578124,2.2451295852661133,3.410536289215088,1.0116961002349854
1759864134527373800,11.035373779296876,3.3350229263305664,2.9809763431549072,0.8863255977630615
1759864134537372400,11.045372314453125,3.8626632690429688,2.8185694217681885,0.9145124554634094
1759864134547371000,11.05537109375,4.157017707824707,2.7539570331573486,1.054996371269226
1759864134557370600,11.06537060546875,3.7981319427490234,2.7760796546936035,1.327423334121704
1759864134567369200,11.075369140625,3.1434755325317383,2.527270555496216,1.2788639068603516
1759864134577368000,11.0853681640625,3.147393226623535,2.510005235671997,1.293126106262207
1759864134587366700,11.09536669921875,2.5513525009155273,1.5264415740966797,0.6812726259231567
1759864134597365500,11.105365478515624,2.769362449645996,1.2495739459991455,0.0741799920797348
1759864134607364400,11.1153642578125,3.0930299758911133,1.2282216548919678,-0.290342777967453
1759864134617363000,11.125363037109375,2.94686222076416,1.0856924057006836,-0.2797095775604248
1759864134627361800,11.13536181640625,2.296879768371582,1.1334235668182373,-0.13286906480789185
1759864134637360600,11.145360595703124,2.312063217163086,1.077660322189331,-0.14949534833431244
1759864134647359200,11.155359130859376,1.1426410675048828,1.2118775844573975,-0.11136245727539062
1759864134657358000,11.165358154296875,-0.8261995315551758,1.136490821838379,-0.33045125007629395
1759864134667357000,11.17535693359375,-1.3033933639526367,0.759415864944458,-0.3865354657173157
1759864134677355500,11.18535546875,-1.4327340126037598,0.31830787658691406,-0.4480346441268921
1759864134687355100,11.195355224609376,-1.1960830688476562,-0.06433486938476562,-0.47274333238601685
1759864134697353700,11.205353759765625,-0.7491073608398438,-0.3143177032470703,-0.36962834000587463
1759864134707352600,11.2153525390625,-0.4472217559814453,-0.48858118057250977,-0.27708446979522705
1759864134717351200,11.22535107421875,-0.43898773193359375,-0.6569321155548096,-0.13720080256462097
1759864134727350000,11.23535009765625,-0.44265079498291016,-0.640739917755127,-0.16324791312217712
1759864134737348900,11.245348876953125,-0.6803560256958008,-0.7344605922698975,0.019728928804397583
1759864134747347500,11.255347412109375,-1.1759462356567383,-0.639906644821167,0.3533923625946045
1759864134757346300,11.26534619140625,-1.177506446838379,-0.633110523223877,0.34487268328666687
1759864134767345000,11.275344970703125,-1.9250097274780273,-0.216505765914917,0.31473904848098755
1759864134777343700,11.28534375,-2.4034581184387207,0.029035091400146484,0.2387705147266388
1759864134787342600,11.295342529296875,-2.7712326049804688,0.2033545970916748,0.19344556331634521
1759864134797341200,11.305341064453126,-3.0146875381469727,0.3452003002166748,0.1647838056087494
1759864134807339800,11.31533984375,-3.062636375427246,0.4735844135284424,0.1119367778301239
1759864134817338600,11.325338623046875,-2.9366888999938965,0.6386463642120361,-0.001279205083847046
1759864134827337500,11.33533740234375,-2.9384922981262207,0.646033525466919,-0.007608562707901001
1759864134837336000,11.345336181640626,-2.7705459594726562,0.8430733680725098,-0.1699925661087036
1759864134847334700,11.355334716796875,-2.738880157470703,0.9696476459503174,-0.3493335247039795
1759864134857333500,11.36533349609375,-2.7642507553100586,1.2068352699279785,-0.5645360946655273
1759864134867332000,11.37533203125,-2.765570640563965,1.211132526397705,-0.5627256035804749
1759864134877331000,11.3853310546875,-2.793398380279541,1.3375883102416992,-0.682362973690033
1759864134887329800,11.395329833984375,-2.6901917457580566,1.3246791362762451,-0.6513105630874634
1759864134897328400,11.405328369140625,-2.516110420227051,1.2884464263916016,-0.6252578496932983
1759864134907327200,11.4153271484375,-2.2545952796936035,1.2393474578857422,-0.7891823053359985
1759864134917326000,11.425326171875,-1.7882704734802246,1.2274866104125977,-0.9848105907440186
1759864134927324700,11.43532470703125,-1.3610811233520508,1.2087352275848389,-1.0338866710662842
1759864134937323500,11.445323486328125,-1.367487907409668,1.2291972637176514,-1.0167758464813232
1759864134947322400,11.455322265625,-0.9952497482299805,1.1647589206695557,-1.0183706283569336
1759864134957321000,11.465321044921875,-0.33487510681152344,1.2484712600708008,-0.9968103170394897
1759864134967319800,11.47531982421875,-0.14465904235839844,1.4396154880523682,-0.9722108840942383
1759864134977318400,11.485318359375,-0.014803886413574219,1.5044364929199219,-0.9663900136947632
1759864134997316000,11.505316162109375,0.00150299072265625,1.8562648296356201,-0.6845539808273315
1759864135007314700,11.515314697265625,-0.085845947265625,2.131700038909912,-0.6708686351776123
1759864135017313500,11.5253134765625,-0.08109855651855469,2.1135051250457764,-0.6648247241973877
1759864135027312400,11.5353125,-0.1906270980834961,2.44997501373291,-0.6596779823303223
1759864135037311000,11.54531103515625,0.1545267105102539,2.544994592666626,-0.8195365071296692
1759864135047309800,11.555309814453125,0.5797653198242188,2.4672317504882812,-0.9410923719406128
1759864135057308400,11.565308349609374,1.0442028045654297,2.1929447650909424,-0.9558109045028687
1759864135067307300,11.575307373046876,1.0454578399658203,2.185976982116699,-0.9295616745948792
1759864135077306000,11.58530615234375,1.5222511291503906,1.8206570148468018,-0.8154844045639038
1759864135087304700,11.5953046875,2.3581161499023438,1.8701238632202148,-0.29960861802101135
1759864135097303600,11.605303466796874,1.9025850296020508,2.247988700866699,-0.00227569043636322
1759864135107302400,11.615302490234376,1.9069480895996094,2.231494903564453,0.019298285245895386
1759864135117301000,11.625301025390625,0.5743341445922852,2.3183975219726562,0.5150772333145142
1759864135127299800,11.6352998046875,0.5789365768432617,2.3018975257873535,0.5288794040679932
1759864135137298700,11.645298583984374,0.7526750564575195,2.1336684226989746,0.7570942640304565
1759864135147297500,11.655297607421875,0.7498388290405273,2.14302921295166,0.7719844579696655
1759864135157296600,11.665296630859375,2.543733596801758,0.7815084457397461,0.6749157905578613
1759864135167295500,11.67529541015625,3.3255605697631836,0.3912162780761719,0.8586990237236023
1759864135177294600,11.685294677734374,3.4792232513427734,0.29288482666015625,1.024417519569397
1759864135187293400,11.69529345703125,2.809356689453125,0.40010547637939453,1.1225335597991943
1759864135197291800,11.705291748046875,1.5663728713989258,0.43950557708740234,1.0145889520645142
1759864135207291000,11.715290771484375,1.5759830474853516,0.40560007095336914,1.0211694240570068
1759864135217289200,11.725289306640626,-0.38014793395996094,0.5701389312744141,0.6471225619316101
1759864135227287600,11.73528759765625,-0.36841583251953125,0.5300261974334717,0.6503928303718567
1759864135237286700,11.74528662109375,-0.7389888763427734,0.5271186828613281,0.5548226833343506
1759864135247285800,11.75528564453125,-0.7522115707397461,0.5664920806884766,0.6028019189834595
1759864135257284000,11.7652841796875,-0.7445344924926758,0.5412733554840088,0.6108955144882202
1759864135267282400,11.775282470703125,-0.9426994323730469,0.6310131549835205,0.6165805459022522
1759864135277281500,11.785281494140625,-1.426025390625,0.6906018257141113,0.5336188077926636
1759864135287280600,11.79528076171875,-1.8844513893127441,0.6519680023193359,0.38278380036354065
1759864135297279700,11.80527978515625,-2.1345205307006836,0.5705645084381104,0.34947437047958374
1759864135307278600,11.815278564453125,-2.1737313270568848,0.5657169818878174,0.39168885350227356
1759864135317277700,11.825277587890625,-2.130256175994873,0.5883967876434326,0.49048227071762085
1759864135327276800,11.83527685546875,-2.22568941116333,0.5945334434509277,0.6149341464042664
1759864135337275600,11.845275634765626,-2.7371644973754883,0.6995506286621094,0.7492850422859192
1759864135347274800,11.855274658203125,-3.049349784851074,0.8435099124908447,0.722098171710968
1759864135357273900,11.86527392578125,-3.047633171081543,0.8382527828216553,0.7103675603866577
1759864135367273000,11.87527294921875,-3.4796385765075684,0.8653385639190674,0.5935818552970886
1759864135377272000,11.88527197265625,-3.4791674613952637,0.8641080856323242,0.5820125341415405
1759864135387271000,11.89527099609375,-3.358112335205078,0.9442849159240723,0.24186888337135315
1759864135397270000,11.90527001953125,-2.9971022605895996,0.8986010551452637,0.07267213612794876
1759864135407268400,11.915268310546875,-2.4415903091430664,0.8969743251800537,-0.07403787970542908
1759864135417267500,11.925267333984374,-2.4478321075439453,0.9169583320617676,-0.07479659467935562
1759864135427266600,11.9352666015625,-2.009399890899658,0.8482046127319336,-0.1614149808883667
1759864135437265400,11.945265380859375,-1.094925880432129,0.8791167736053467,0.02984992414712906
1759864135447264300,11.95526416015625,-1.1024293899536133,0.9037134647369385,0.030821405351161957
1759864135457263000,11.96526318359375,-0.21659278869628906,0.8269343376159668,0.3133631944656372
1759864135467262000,11.975261962890626,0.12660598754882812,0.7738027572631836,0.3230757713317871
1759864135477260800,11.9852607421875,0.33962440490722656,0.7875204086303711,0.3068804144859314
1759864135487259600,11.995259765625,0.4971046447753906,0.9672062397003174,0.2580794394016266
1759864135497259000,12.005259033203124,0.6210870742797852,1.1890332698822021,0.1704058200120926
1759864135507257900,12.0152578125,0.37963104248046875,1.4189949035644531,0.2181462049484253
1759864135517257200,12.02525732421875,-0.22426891326904297,1.6647837162017822,0.2921452224254608
1759864135527256600,12.035256591796875,-0.2146015167236328,1.6325550079345703,0.2951955497264862
1759864135537255400,12.04525537109375,-1.1444721221923828,2.3794260025024414,0.20825856924057007
1759864135547254000,12.05525390625,-1.3874082565307617,2.6986255645751953,0.11856135725975037
1759864135557253400,12.06525341796875,-1.378194808959961,2.669182777404785,0.11473493278026581
1759864135567253000,12.0752529296875,-1.1175508499145508,3.0066728591918945,0.06544424593448639
1759864135577251600,12.08525146484375,-0.7897787094116211,2.9350430965423584,0.11376944929361343
1759864135587250400,12.09525048828125,-0.7869968414306641,2.926572799682617,0.10268925130367279
1759864135597249000,12.1052490234375,0.11205482482910156,2.786628484725952,0.1179937794804573
1759864135607248000,12.115247802734375,0.5527000427246094,2.726926326751709,0.1837901771068573
1759864135617246500,12.12524658203125,0.5524444580078125,2.7283666133880615,0.16673631966114044
1759864135627245300,12.135245361328124,1.0143556594848633,3.0624260902404785,0.4801815152168274
1759864135637244200,12.145244140625,1.0021791458129883,3.075770616531372,0.5752989053726196
1759864135647242800,12.15524267578125,1.0034809112548828,2.7565882205963135,0.578192412853241
1759864135657241600,12.16524169921875,1.0003089904785156,2.767000913619995,0.5703041553497314
1759864135667240400,12.175240478515626,1.1422710418701172,2.3017220497131348,0.41983741521835327
1759864135677239000,12.185239013671875,2.4298038482666016,0.9045460224151611,-0.372506320476532
1759864135687238000,12.19523779296875,2.4169483184814453,0.946291446685791,-0.37442469596862793
1759864135697236700,12.20523681640625,4.1733903884887695,0.13182830810546875,-0.7933167815208435
1759864135707236000,12.215236083984376,4.164105415344238,0.16347813606262207,-0.8030987977981567
1759864135717235000,12.22523486328125,4.198341369628906,0.3561723232269287,-0.5977067947387695
1759864135727233500,12.235233642578125,3.4152097702026367,0.5521137714385986,-0.278483122587204
1759864135737232400,12.245232421875,1.4253654479980469,0.6075048446655273,-0.6432202458381653
1759864135747231000,12.25523095703125,0.7113685607910156,0.5431256294250488,-0.8805519342422485
1759864135777227300,12.285227294921874,-0.6902656555175781,0.20972752571105957,-1.2646147012710571
1759864135787226000,12.29522607421875,-1.1030817031860352,0.06696844100952148,-1.2237486839294434
1759864135797225000,12.305224853515625,-1.0972709655761719,0.04789137840270996,-1.2194111347198486
1759864135807223600,12.3152236328125,-1.9776763916015625,0.17902112007141113,-1.204152226448059
1759864135817222400,12.325222412109374,-2.355909824371338,0.30553603172302246,-1.1688112020492554
1759864135827221200,12.33522119140625,-2.352083683013916,0.2944607734680176,-1.180750846862793
1759864135837219800,12.3452197265625,-2.6296896934509277,0.4075205326080322,-0.9986109733581543
1759864135847218700,12.35521875,-3.0095386505126953,0.39670610427856445,-0.6323182582855225
1759864135857217300,12.36521728515625,-3.010805130004883,0.4020249843597412,-0.6455854177474976
1759864135867216100,12.375216064453125,-2.7152371406555176,0.2617518901824951,-0.341337114572525
1759864135877214700,12.385214599609375,-2.505695343017578,0.2531309127807617,-0.2591819763183594
1759864135887213600,12.395213623046875,-2.223391056060791,0.2879166603088379,-0.19794614613056183
1759864135897212400,12.40521240234375,-2.054337501525879,0.37360453605651855,-0.22108094394207
1759864135907211000,12.4152109375,-1.9234123229980469,0.5408251285552979,-0.24914509057998657
1759864135917209900,12.4252099609375,-1.9302940368652344,0.5662393569946289,-0.2686464190483093
1759864135927208400,12.43520849609375,-2.0505104064941406,0.8737549781799316,-0.09723135828971863
1759864135937207300,12.445207275390626,-2.2172417640686035,0.9751379489898682,-0.06030315160751343
1759864135947206000,12.455205810546875,-2.3256516456604004,1.0586564540863037,-0.021082907915115356
1759864135957204700,12.465204833984375,-2.2231411933898926,1.1073436737060547,-0.12410151958465576
1759864135967203300,12.475203369140624,-2.0779600143432617,1.2575910091400146,-0.1737048327922821
1759864135977202000,12.485201904296876,-2.009749412536621,1.468740701675415,-0.21473421156406403
1759864135987200800,12.49520068359375,-1.9678359031677246,1.674938678741455,-0.2504177987575531
1759864135997199600,12.50519970703125,-1.837395191192627,1.7948873043060303,-0.24340762197971344
1759864136007198200,12.5151982421875,-1.6211471557617188,1.7577500343322754,-0.20474369823932648
1759864136017197000,12.525197021484376,-1.328953742980957,1.722797155380249,-0.21966151893138885
1759864136027196000,12.53519580078125,-1.0013198852539062,1.7398674488067627,-0.3683980703353882
1759864136037194500,12.545194580078125,-0.5949554443359375,1.7365286350250244,-0.598627507686615
1759864136047193300,12.555193359375,-0.6001529693603516,1.7539427280426025,-0.5912584066390991
1759864136057192000,12.56519189453125,0.2357807159423828,1.9792420864105225,-0.8962849378585815
1759864136067190800,12.575190673828125,0.23271560668945312,1.9889483451843262,-0.8872030377388
1759864136077189600,12.585189697265625,0.7726497650146484,2.293987274169922,-0.870045006275177
1759864136087188200,12.595188232421876,0.9006223678588867,2.442530393600464,-0.7712596654891968
1759864136097187000,12.60518701171875,0.9041938781738281,2.428969144821167,-0.7664726972579956
1759864136107186000,12.61518603515625,0.8001308441162109,2.7775330543518066,-0.6457099914550781
1759864136117184500,12.6251845703125,0.8152322769165039,2.8633358478546143,-0.671328067779541
1759864136127183400,12.635183349609376,0.8243570327758789,2.830068826675415,-0.6609649658203125
1759864136137182000,12.645181884765625,0.8053178787231445,2.6992733478546143,-0.657738208770752
1759864136147180800,12.655180908203125,0.8148784637451172,2.6649386882781982,-0.6425307989120483
1759864136157179600,12.6651796875,0.8427104949951172,2.435055732727051,-0.5956530570983887
1759864136167178200,12.67517822265625,0.9456653594970703,2.4473180770874023,-0.6176179647445679
1759864136177177000,12.685177001953125,0.9554719924926758,2.634509801864624,-0.6518281698226929
1759864136187176000,12.695176025390625,0.8073406219482422,2.556659698486328,-0.5426138043403625
1759864136197173800,12.705173828125,0.5799531936645508,2.1382689476013184,-0.26572439074516296
1759864136207171800,12.715171875,0.5762414932250977,2.149235963821411,-0.2488745152950287
1759864136217170000,12.725169921875,0.7492551803588867,1.3467345237731934,0.11737170815467834
1759864136227168000,12.73516796875,2.3993024826049805,-0.4893009662628174,0.42979902029037476
1759864136237166000,12.745166015625,2.3822546005249023,-0.4317648410797119,0.44207602739334106
1759864136247166000,12.755166015625,3.421783447265625,-0.902169942855835,0.5866442322731018
1759864136257164800,12.765164794921875,3.8460235595703125,-0.71122145652771,0.6832956671714783
1759864136267163000,12.775162841796876,2.9368066787719727,-0.38350653648376465,0.8194043636322021
1759864136277162000,12.785161865234375,1.6399908065795898,-0.14716625213623047,1.0237371921539307
1759864136287160800,12.795160888671875,1.6486778259277344,-0.17881989479064941,1.057248592376709
1759864136297159700,12.80515966796875,-0.3965272903442383,0.31949615478515625,1.23408043384552
1759864136307158500,12.815158447265626,-0.3843650817871094,0.2774806022644043,1.2592108249664307
1759864136317157400,12.825157470703125,-1.1222953796386719,0.4014768600463867,1.2110908031463623
1759864136327156200,12.83515625,-2.0077695846557617,0.49756479263305664,1.043936848640442
1759864136337155000,12.845155029296874,-2.174220085144043,0.5731635093688965,0.8872631788253784
1759864136347154000,12.85515380859375,-2.1673126220703125,0.5508370399475098,0.9016229510307312
1759864136357152800,12.86515283203125,-2.3531904220581055,0.475344181060791,0.6447826027870178
1759864136367151600,12.875151611328125,-2.3584794998168945,0.39478230476379395,0.4760149121284485
1759864136377150500,12.885150390625,-2.4343247413635254,0.22915434837341309,0.4623493552207947
1759864136387149300,12.8951494140625,-2.640237331390381,0.08973217010498047,0.5372580289840698
1759864136397148200,12.905148193359375,-2.8065218925476074,-0.03211259841918945,0.5380728840827942
1759864136407147000,12.91514697265625,-2.8066554069519043,-0.03215360641479492,0.524140477180481
1759864136417145900,12.925145751953124,-2.942509174346924,-0.08675336837768555,0.45773088932037354
1759864136427144700,12.935144775390626,-2.9768428802490234,-0.09352302551269531,0.39477425813674927
1759864136437143600,12.9451435546875,-2.9812517166137695,-0.07947993278503418,0.3823562264442444
1759864136447142400,12.955142333984375,-2.8835959434509277,-0.021686792373657227,0.3891916275024414
1759864136457141200,12.965141357421874,-2.4678287506103516,0.14266395568847656,0.48681730031967163
1759864136467140000,12.97514013671875,-2.473054885864258,0.1598527431488037,0.4799307584762573
1759864136477139000,12.985138916015625,-2.4728574752807617,0.31391143798828125,0.3535337448120117
1759864136487137800,12.9951376953125,-2.884157657623291,0.8213980197906494,-0.02912760339677334
1759864136497137400,13.005137451171874,-3.1662817001342773,1.118668556213379,-0.1894274652004242
1759864136507137000,13.015136962890624,-3.1714468002319336,1.1361298561096191,-0.19557751715183258
1759864136517136600,13.02513671875,-3.120762825012207,1.559053897857666,-0.6655217409133911
1759864136527136300,13.03513623046875,-2.5600643157958984,1.6910195350646973,-0.7390028834342957
1759864136537135600,13.045135498046875,-1.9223995208740234,1.8664700984954834,-0.613743007183075
1759864136547133400,13.055133544921874,-1.3911008834838867,2.0892996788024902,-0.4256785809993744
1759864136557132000,13.065132080078126,-0.6921005249023438,2.2694220542907715,-0.13294044137001038
1759864136567131600,13.075131591796875,0.028814315795898438,2.437325954437256,0.0876375138759613
1759864136577130200,13.085130126953125,0.59783935546875,2.519282341003418,0.2341926395893097
1759864136587128800,13.09512890625,1.118764877319336,2.550466775894165,0.41899222135543823
1759864136597127700,13.105127685546876,1.4556074142456055,2.5837314128875732,0.43554654717445374
1759864136607126500,13.11512646484375,1.6348857879638672,2.677936315536499,0.43528833985328674
1759864136617125000,13.125125,1.6589488983154297,2.8283257484436035,0.4333493411540985
