time,seconds_elapsed,z,y,x
1759864123663552500,0.171552490234375,8.750391960144043,4.0740203857421875,1.7330156564712524
1759864123695552500,0.203552490234375,8.792498588562012,3.9587032794952393,1.7863385677337646
1759864123705552600,0.213552734375,8.80620288848877,3.9149341583251953,1.8150560855865479
1759864123715552500,0.223552490234375,8.81893539428711,3.8708837032318115,1.847429633140564
1759864123725552600,0.233552734375,8.830462455749512,3.832395553588867,1.8724428415298462
1759864123755554300,0.26355419921875,8.858521461486816,3.7732415199279785,1.8600068092346191
1759864123805553700,0.3135537109375,8.89714241027832,3.7494027614593506,1.7184860706329346
1759864123865554400,0.373554443359375,8.888419151306152,3.8797290325164795,1.4539856910705566
1759864123875554300,0.38355419921875,8.87653923034668,3.9376189708709717,1.3684154748916626
1759864123885554200,0.39355419921875,8.862895011901855,4.002207279205322,1.2656233310699463
1759864123895554300,0.40355419921875,8.846529960632324,4.072103023529053,1.1520535945892334
1759864123905554200,0.41355419921875,8.826883316040039,4.144908905029297,1.0374070405960083
1759864123915554300,0.42355419921875,8.804534912109375,4.215742111206055,0.937023401260376
1759864123925554200,0.43355419921875,8.781671524047852,4.279872417449951,0.857496976852417
1759864123935554300,0.44355419921875,8.760858535766602,4.334959983825684,0.7911124229431152
1759864123945554200,0.45355419921875,8.743142127990723,4.3803839683532715,0.7348935008049011
1759864123955554300,0.46355419921875,8.7279634475708,4.418964862823486,0.6824579834938049
1759864123965554200,0.47355419921875,8.71313190460205,4.455993175506592,0.6291294097900391
1759864123975554300,0.48355419921875,8.695801734924316,4.497109413146973,0.5739538669586182
1759864123985554200,0.49355419921875,8.676101684570312,4.541571140289307,0.5193662643432617
1759864123995554300,0.50355419921875,8.657898902893066,4.581578731536865,0.46932798624038696
1759864124005554700,0.5135546875,8.644667625427246,4.610489368438721,0.4283052086830139
1759864124015554600,0.523554443359375,8.638020515441895,4.625392436981201,0.40089449286460876
1759864124025554700,0.5335546875,8.637934684753418,4.627254009246826,0.3807416260242462
1759864124035554600,0.543554443359375,8.643325805664062,4.61898946762085,0.3580399751663208
1759864124045554700,0.5535546875,8.653427124023438,4.601901054382324,0.3332785964012146
1759864124055554300,0.56355419921875,8.668529510498047,4.575039863586426,0.30977293848991394
1759864124065554400,0.573554443359375,8.689352989196777,4.536808967590332,0.28785204887390137
1759864124075554300,0.58355419921875,8.717046737670898,4.484654426574707,0.2670533061027527
1759864124085554400,0.593554443359375,8.750417709350586,4.4201884269714355,0.24998101592063904
1759864124095554300,0.60355419921875,8.787208557128906,4.347209930419922,0.23894861340522766
1759864124105554400,0.613554443359375,8.826621055603027,4.2667059898376465,0.2373439520597458
1759864124115554800,0.623554931640625,8.865435600280762,4.184848785400391,0.2478901892900467
1759864124125555000,0.633554931640625,8.901151657104492,4.107476711273193,0.2616879642009735
1759864124135554800,0.643554931640625,8.933602333068848,4.035785675048828,0.2712152302265167
1759864124145555000,0.653554931640625,8.962898254394531,3.9696149826049805,0.28100597858428955
1759864124155554800,0.663554931640625,8.989653587341309,3.9078714847564697,0.29160264134407043
1759864124165554400,0.673554443359375,9.016651153564453,3.844528913497925,0.299930602312088
1759864124175554600,0.683554443359375,9.045317649841309,3.7755277156829834,0.3130326569080353
1759864124185554400,0.693554443359375,9.074152946472168,3.703439235687256,0.33860185742378235
1759864124195554600,0.703554443359375,9.100914001464844,3.633848190307617,0.37266939878463745
1759864124205554400,0.713554443359375,9.124499320983887,3.569554328918457,0.41492989659309387
1759864124215554600,0.723554443359375,9.143848419189453,3.514716386795044,0.45516151189804077
1759864124225554400,0.733554443359375,9.16402530670166,3.458939552307129,0.47618338465690613
1759864124235554600,0.743554443359375,9.188189506530762,3.3946452140808105,0.4732198715209961
1759864124245554400,0.753554443359375,9.215398788452148,3.3230390548706055,0.4518716633319855
1759864124255555000,0.76355517578125,9.244707107543945,3.2435271739959717,0.43045565485954285
1759864124265555000,0.773554931640625,9.275629997253418,3.153951644897461,0.43088382482528687
1759864124275555000,0.78355517578125,9.310395240783691,3.0471231937408447,0.4493924081325531
1759864124285554200,0.79355419921875,9.349068641662598,2.921327829360962,0.48076269030570984
1759864124295553500,0.803553466796875,9.391302108764648,2.7754738330841064,0.5201442837715149
1759864124305552600,0.813552734375,9.436766624450684,2.6069045066833496,0.5673298835754395
1759864124315552000,0.823552001953125,9.48426628112793,2.4143335819244385,0.6245516538619995
1759864124325551600,0.833551513671875,9.5316801071167,2.19880747795105,0.6947551965713501
1759864124335551200,0.84355126953125,9.575458526611328,1.965775966644287,0.7853004336357117
1759864124345550600,0.853550537109375,9.61269474029541,1.7208067178726196,0.8973904848098755
1759864124355550700,0.86355078125,9.64210033416748,1.4688290357589722,1.021187424659729
1759864124365550600,0.873550537109375,9.6633882522583,1.217079997062683,1.1436851024627686
1759864124375550500,0.883550537109375,9.677613258361816,0.9804893136024475,1.2461254596710205
1759864124385550600,0.893550537109375,9.68539047241211,0.7780308127403259,1.3259963989257812
1759864124395549700,0.9035498046875,9.686359405517578,0.6229276061058044,1.398848533630371
1759864124405549800,0.9135498046875,9.679821014404297,0.5237438678741455,1.4822747707366943
1759864124415549200,0.923549072265625,9.666711807250977,0.48450368642807007,1.5780738592147827
1759864124425549000,0.933549072265625,9.650157928466797,0.5014014840126038,1.671355128288269
1759864124435548700,0.943548583984375,9.633485794067383,0.5638752579689026,1.7459592819213867
1759864124445548500,0.953548583984375,9.618091583251953,0.6548646092414856,1.7982882261276245
1759864124455548200,0.963548095703125,9.604715347290039,0.7570740580558777,1.8293894529342651
1759864124465548000,0.973548095703125,9.593757629394531,0.8586598038673401,1.841982126235962
1759864124475547400,0.98354736328125,9.584147453308105,0.9560439586639404,1.8440407514572144
1759864124485547000,0.993547119140625,9.573896408081055,1.0460814237594604,1.8484066724777222
1759864124495546600,1.003546630859375,9.561046600341797,1.1227434873580933,1.8698183298110962
1759864124505546200,1.013546142578125,9.545486450195312,1.1817604303359985,1.9124624729156494
1759864124515545600,1.023545654296875,9.527501106262207,1.2210408449172974,1.9764025211334229
1759864124525545000,1.033544921875,9.508426666259766,1.250419020652771,2.0485732555389404
1759864124535544300,1.04354443359375,9.489910125732422,1.2607542276382446,2.126615047454834
1759864124545543700,1.053543701171875,9.473980903625488,1.2589527368545532,2.197521448135376
1759864124555542500,1.06354248046875,9.459548950195312,1.2519383430480957,2.262728214263916
1759864124565542000,1.0735419921875,9.444765090942383,1.2464491128921509,2.3266212940216064
1759864124575541000,1.083541015625,9.430901527404785,1.2462176084518433,2.3823118209838867
1759864124585540900,1.093540771484375,9.419615745544434,1.251341462135315,2.4239141941070557
1759864124595540700,1.103540771484375,9.410428047180176,1.258966326713562,2.45544695854187
1759864124605540400,1.113540283203125,9.403128623962402,1.269565224647522,2.4778528213500977
1759864124615539000,1.1235390625,9.396380424499512,1.2897675037384033,2.4929747581481934
1759864124625537800,1.133537841796875,9.389796257019043,1.3218011856079102,2.500988245010376
1759864124635537200,1.143537109375,9.384710311889648,1.3526157140731812,2.5036017894744873
1759864124645536000,1.153535888671875,9.382899284362793,1.3741031885147095,2.498682737350464
1759864124655534600,1.16353466796875,9.38254451751709,1.3865584135055542,2.493128538131714
1759864124665533400,1.173533447265625,9.382222175598145,1.3903889656066895,2.4922101497650146
1759864124675531800,1.18353173828125,9.38327407836914,1.3847428560256958,2.4913926124572754
1759864124685529900,1.19352978515625,9.385897636413574,1.3736910820007324,2.487624406814575
1759864124695528700,1.20352880859375,9.387052536010742,1.3626288175582886,2.4893505573272705
1759864124705527300,1.21352734375,9.384846687316895,1.3537449836730957,2.5024797916412354
1759864124715526100,1.223526123046875,9.380802154541016,1.3518277406692505,2.518627643585205
1759864124725524700,1.233524658203125,9.375945091247559,1.3603253364562988,2.532102108001709
1759864124735523600,1.243523681640625,9.370699882507324,1.3783862590789795,2.541733503341675
1759864124745522200,1.253522216796875,9.366085052490234,1.4060251712799072,2.5436019897460938
1759864124755520500,1.2635205078125,9.363380432128906,1.4442298412322998,2.5321292877197266
1759864124765519400,1.273519287109375,9.362919807434082,1.493989109992981,2.5048160552978516
1759864124775518000,1.28351806640625,9.361332893371582,1.553165316581726,2.474571466445923
1759864124785516800,1.293516845703125,9.35687255859375,1.6137968301773071,2.452542304992676
1759864124795515400,1.303515380859375,9.350013732910156,1.6659321784973145,2.4438250064849854
1759864124805514200,1.31351416015625,9.340666770935059,1.7033250331878662,2.453770875930786
1759864124815513000,1.32351318359375,9.328658103942871,1.7240172624588013,2.4848105907440186
1759864124825511700,1.33351171875,9.315216064453125,1.7284736633300781,2.5317001342773438
1759864124835510500,1.343510498046875,9.303032875061035,1.7180863618850708,2.5830490589141846
1759864124845509000,1.353509033203125,9.293781280517578,1.6963562965393066,2.630279541015625
1759864124855508000,1.363508056640625,9.288616180419922,1.6699901819229126,2.665166139602661
1759864124865506800,1.3735068359375,9.288512229919434,1.6436728239059448,2.681839942932129
1759864124875505400,1.38350537109375,9.295164108276367,1.6153665781021118,2.675982713699341
1759864124885503700,1.393503662109375,9.309258460998535,1.581202507019043,2.6472392082214355
1759864124895501600,1.40350146484375,9.327740669250488,1.5414307117462158,2.605302095413208
1759864124905500400,1.41350048828125,9.34627628326416,1.5037144422531128,2.560537099838257
1759864124915499800,1.423499755859375,9.362421989440918,1.4763263463974,2.517115354537964
1759864124925499400,1.43349951171875,9.375136375427246,1.4632010459899902,2.4771413803100586
1759864124935498000,1.443498046875,9.384439468383789,1.4649111032485962,2.440636157989502
1759864124945496300,1.453496337890625,9.394814491271973,1.4710698127746582,2.3966176509857178
1759864124955494700,1.46349462890625,9.40569019317627,1.4783746004104614,2.348996162414551
1759864125025485300,1.5334853515625,9.461170196533203,1.4563672542572021,2.1297035217285156
1759864125035484200,1.543484130859375,9.468816757202148,1.4528814554214478,2.0978610515594482
1759864125045482800,1.553482666015625,9.479947090148926,1.44783353805542,2.050549268722534
1759864125055481900,1.56348193359375,9.494166374206543,1.4438650608062744,1.986566185951233
1759864125065480700,1.573480712890625,9.510539054870605,1.446858286857605,1.9043718576431274
1759864125075479600,1.5834794921875,9.526293754577637,1.461309552192688,1.8123668432235718
1759864125085478100,1.59347802734375,9.5413179397583,1.473044753074646,1.7215603590011597
1759864125095477000,1.60347705078125,9.559934616088867,1.4545427560806274,1.6316663026809692
1759864125105475600,1.6134755859375,9.582077980041504,1.3896818161010742,1.556584119796753
1759864125115474400,1.623474365234375,9.600985527038574,1.2926899194717407,1.523288607597351
1759864125125473000,1.63347314453125,9.614535331726074,1.1883209943771362,1.522823691368103
1759864125135471900,1.643471923828125,9.625612258911133,1.0962378978729248,1.5219155550003052
1759864125145470500,1.653470458984375,9.635883331298828,1.0293354988098145,1.50352942943573
1759864125155469300,1.66346923828125,9.647464752197266,0.9827357530593872,1.4598097801208496
1759864125165468000,1.673468017578125,9.660341262817383,0.9458281993865967,1.3977141380310059
1759864125175466800,1.683466796875,9.673904418945312,0.9059383869171143,1.328620433807373
1759864125185465300,1.69346533203125,9.685235977172852,0.8585237860679626,1.2765311002731323
1759864125195465200,1.70346533203125,9.691812515258789,0.7926599979400635,1.2691888809204102
1759864125205464000,1.713464111328125,9.693313598632812,0.7112510800361633,1.3054405450820923
1759864125215463000,1.723462890625,9.69125747680664,0.6255541443824768,1.3633018732070923
1759864125225461500,1.73346142578125,9.689807891845703,0.5474735498428345,1.4065146446228027
1759864125235460600,1.743460693359375,9.68996524810791,0.49024245142936707,1.4264014959335327
1759864125245460200,1.753460205078125,9.691489219665527,0.46287181973457336,1.4251915216445923
1759864125255459800,1.7634599609375,9.692935943603516,0.48200786113739014,1.4089187383651733
1759864125265459000,1.773458984375,9.696324348449707,0.5430441498756409,1.3626408576965332
1759864125275458600,1.78345849609375,9.701634407043457,0.6281566619873047,1.2861183881759644
1759864125285457400,1.79345751953125,9.704700469970703,0.7375215291976929,1.20218026638031
1759864125295456800,1.803456787109375,9.70327377319336,0.8702586889266968,1.1222857236862183
1759864125305455900,1.813455810546875,9.695504188537598,1.021807074546814,1.0599545240402222
1759864125315454700,1.823454833984375,9.682661056518555,1.1771571636199951,1.0152651071548462
1759864125325453300,1.833453369140625,9.665513038635254,1.322672963142395,0.9993888735771179
1759864125335452200,1.8434521484375,9.645735740661621,1.4428863525390625,1.0238404273986816
1759864125345451000,1.853450927734375,9.627941131591797,1.5213342905044556,1.0764206647872925
1759864125355449600,1.86344970703125,9.616522789001465,1.5523061752319336,1.1327900886535645
1759864125365448400,1.873448486328125,9.610845565795898,1.547902226448059,1.1857649087905884
1759864125375447000,1.883447021484375,9.60651683807373,1.5326684713363647,1.2394142150878906
1759864125385446000,1.89344580078125,9.602803230285645,1.5077961683273315,1.2973462343215942
1759864125395444700,1.90344482421875,9.598724365234375,1.4817150831222534,1.3562442064285278
1759864125405443300,1.913443359375,9.594393730163574,1.4597759246826172,1.4096245765686035
1759864125415442200,1.923442138671875,9.5896577835083,1.4485751390457153,1.4527462720870972
1759864125425441000,1.93344091796875,9.584181785583496,1.453695297241211,1.4834436178207397
1759864125435439900,1.94343994140625,9.577811241149902,1.4790709018707275,1.4994174242019653
1759864125445438700,1.953438720703125,9.570277214050293,1.5244550704956055,1.5020712614059448
1759864125455437800,1.963437744140625,9.56167984008789,1.5857685804367065,1.4933205842971802
1759864125465436700,1.973436767578125,9.552103042602539,1.657606601715088,1.4764951467514038
1759864125475435800,1.983435791015625,9.541590690612793,1.7337132692337036,1.4569392204284668
1759864125485435400,1.993435302734375,9.531194686889648,1.8070955276489258,1.4356575012207031
1759864125495434000,2.00343408203125,9.52150821685791,1.8737374544143677,1.4143433570861816
1759864125505433000,2.01343310546875,9.513077735900879,1.9295903444290161,1.3958576917648315
1759864125515432200,2.02343212890625,9.506321907043457,1.9699363708496094,1.385486364364624
1759864125525431300,2.033431396484375,9.502095222473145,1.9899760484695435,1.3858458995819092
1759864125535430400,2.043430419921875,9.501921653747559,1.9860224723815918,1.3926911354064941
1759864125545429500,2.053429443359375,9.505284309387207,1.9582738876342773,1.4089438915252686
1759864125555428600,2.0634287109375,9.51052474975586,1.9114576578140259,1.4375746250152588
1759864125565427700,2.073427734375,9.516633033752441,1.8529229164123535,1.4733498096466064
1759864125575426800,2.0834267578125,9.522695541381836,1.7909351587295532,1.5103669166564941
1759864125585425700,2.09342578125,9.527432441711426,1.7339280843734741,1.5465731620788574
1759864125595424800,2.1034248046875,9.530134201049805,1.6889559030532837,1.5793466567993164
1759864125605423900,2.113423828125,9.530858993530273,1.6595910787582397,1.60588800907135
1759864125625420800,2.1334208984375,9.52559757232666,1.6294046640396118,1.6668589115142822
1759864125635420000,2.143419921875,9.524458885192871,1.6143988370895386,1.6878318786621094
1759864125645419000,2.1534189453125,9.525330543518066,1.6026732921600342,1.6940778493881226
1759864125655418000,2.163418212890625,9.525801658630371,1.6039540767669678,1.6902127265930176
1759864125665417200,2.173417236328125,9.5239839553833,1.6227689981460571,1.6824803352355957
1759864125675416300,2.183416259765625,9.51978588104248,1.6587272882461548,1.6711297035217285
1759864125685415400,2.19341552734375,9.514289855957031,1.7092918157577515,1.6513571739196777
1759864125695414000,2.2034140625,9.507952690124512,1.7694863080978394,1.6242334842681885
1759864125705412400,2.213412353515625,9.500606536865234,1.8354909420013428,1.593681812286377
1759864125725410600,2.23341064453125,9.484160423278809,1.9694675207138062,1.5304538011550903
1759864125735409000,2.243408935546875,9.475899696350098,2.025491237640381,1.5083398818969727
1759864125745407700,2.25340771484375,9.468610763549805,2.0663042068481445,1.4987239837646484
1759864125755406600,2.263406494140625,9.463591575622559,2.0899014472961426,1.4977076053619385
1759864125765405400,2.273405517578125,9.461263656616211,2.099867820739746,1.498473882675171
1759864125775404300,2.283404296875,9.460752487182617,2.104203939437866,1.4956144094467163
1759864125785403100,2.293403076171875,9.460740089416504,2.109513759613037,1.4881950616836548
1759864125795402000,2.303402099609375,9.4603910446167,2.1170730590820312,1.479655385017395
1759864125805400600,2.313400634765625,9.45859432220459,2.123976230621338,1.4812487363815308
1759864125815399400,2.3233994140625,9.455547332763672,2.1268527507781982,1.4964990615844727
1759864125825398300,2.333398193359375,9.45278263092041,2.1233935356140137,1.5187170505523682
1759864125835396900,2.34339697265625,9.45034122467041,2.1157379150390625,1.54437255859375
1759864125845395500,2.3533955078125,9.447510719299316,2.109743356704712,1.5696784257888794
1759864125855394300,2.363394287109375,9.444472312927246,2.1107256412506104,1.586556077003479
1759864125865393000,2.373392822265625,9.440164566040039,2.1241469383239746,1.594259262084961
1759864125875391700,2.383391845703125,9.433623313903809,2.1530773639678955,1.5941725969314575
1759864125885390300,2.393390380859375,9.428614616394043,2.1908962726593018,1.5721262693405151
1759864125895389000,2.403388916015625,9.425207138061523,2.230436086654663,1.5365560054779053
1759864125905387800,2.4133876953125,9.42146110534668,2.2676093578338623,1.5047922134399414
1759864125915387000,2.423386962890625,9.41944694519043,2.2988483905792236,1.4695931673049927
1759864125925386200,2.43338623046875,9.416950225830078,2.3317041397094727,1.4333783388137817
1759864125935385000,2.443385009765625,9.413028717041016,2.3715851306915283,1.3931429386138916
1759864125945383200,2.453383056640625,9.404741287231445,2.4205987453460693,1.3645178079605103
1759864125955381200,2.46338134765625,9.386475563049316,2.4922022819519043,1.3613910675048828
1759864125965379600,2.473379638671875,9.366701126098633,2.582000970840454,1.3298721313476562
1759864125975378200,2.483378173828125,9.34541130065918,2.682992458343506,1.2787617444992065
1759864125985377000,2.493376953125,9.324134826660156,2.7810018062591553,1.2234857082366943
1759864125995376000,2.503376220703125,9.30803394317627,2.8597617149353027,1.163022518157959
1759864126005375500,2.51337548828125,9.302329063415527,2.9029505252838135,1.0999627113342285
1759864126015374300,2.523374267578125,9.309296607971191,2.9014716148376465,1.043470859527588
1759864126025373000,2.533373046875,9.327831268310547,2.8542706966400146,1.0075030326843262
1759864126035372500,2.54337255859375,9.355339050292969,2.764744997024536,1.0020900964736938
1759864126045371100,2.55337109375,9.389237403869629,2.638195276260376,1.025923728942871
1759864126055370000,2.563369873046875,9.426078796386719,2.483576536178589,1.0729628801345825
1759864126065368600,2.57336865234375,9.461517333984375,2.314361095428467,1.137457013130188
1759864126075367400,2.583367431640625,9.492225646972656,2.145350933074951,1.2105835676193237
1759864126085366300,2.5933662109375,9.515889167785645,1.9916203022003174,1.2851767539978027
1759864126095364900,2.60336474609375,9.531645774841309,1.8683608770370483,1.3517906665802002
1759864126105363700,2.61336376953125,9.539801597595215,1.7845981121063232,1.406333565711975
1759864126115362300,2.6233623046875,9.541708946228027,1.7406259775161743,1.4478914737701416
1759864126125361200,2.633361083984375,9.538540840148926,1.729076862335205,1.482199788093567
1759864126135360000,2.643360107421875,9.532233238220215,1.7426074743270874,1.506727933883667
1759864126145358600,2.653358642578125,9.525211334228516,1.770806908607483,1.5182100534439087
1759864126155357400,2.663357421875,9.517477989196777,1.8093953132629395,1.5212103128433228
1759864126165356300,2.673356201171875,9.506658554077148,1.8627955913543701,1.524406909942627
1759864126175355000,2.68335498046875,9.487988471984863,1.9315348863601685,1.5548688173294067
1759864126185354000,2.69335400390625,9.460084915161133,2.01114559173584,1.6224850416183472
1759864126195352600,2.7033525390625,9.427355766296387,2.10221004486084,1.6958855390548706
1759864126205351400,2.713351318359375,9.39365005493164,2.196805953979492,1.7617483139038086
1759864126215350500,2.7233505859375,9.365822792053223,2.2807016372680664,1.8028160333633423
1759864126225349000,2.73334912109375,9.342965126037598,2.3544795513153076,1.8264200687408447
1759864126235348000,2.743347900390625,9.331005096435547,2.4023444652557373,1.8252317905426025
1759864126245347300,2.753347412109375,9.323667526245117,2.4253382682800293,1.8323014974594116
1759864126255346700,2.7633466796875,9.315103530883789,2.4302570819854736,1.8689697980880737
1759864126275344600,2.7833447265625,9.297819137573242,2.3895373344421387,2.002756118774414
1759864126285343500,2.793343505859375,9.292243003845215,2.3461241722106934,2.0785300731658936
1759864126295342000,2.803342041015625,9.2905855178833,2.2971153259277344,2.1397786140441895
1759864126305341000,2.8133408203125,9.292144775390625,2.2545533180236816,2.177936315536499
1759864126315339500,2.823339599609375,9.292428016662598,2.233610153198242,2.1982104778289795
1759864126325338400,2.83333837890625,9.297338485717773,2.2212941646575928,2.1899166107177734
1759864126335337000,2.8433369140625,9.302336692810059,2.2150840759277344,2.174924850463867
1759864126345335800,2.853335693359375,9.30269718170166,2.21756649017334,2.1708507537841797
1759864126355334700,2.863334716796875,9.301137924194336,2.2249937057495117,2.1699323654174805
1759864126365333200,2.873333251953125,9.298219680786133,2.2338807582855225,2.1733078956604004
1759864126375331300,2.883331298828125,9.294758796691895,2.2439663410186768,2.1777143478393555
1759864126385330200,2.893330078125,9.291805267333984,2.2513487339019775,2.182697057723999
1759864126395329000,2.9033291015625,9.290980339050293,2.2545034885406494,2.1829495429992676
1759864126405327600,2.91332763671875,9.292078971862793,2.243962287902832,2.1891276836395264
1759864126415326500,2.923326416015625,9.294647216796875,2.218914270401001,2.2037088871002197
1759864126425325300,2.9333251953125,9.297484397888184,2.1872448921203613,2.2233121395111084
1759864126435324000,2.943323974609375,9.301315307617188,2.153388500213623,2.2402706146240234
1759864126445322800,2.95332275390625,9.309476852416992,2.1138641834259033,2.244015693664551
1759864126455321300,2.9633212890625,9.32291030883789,2.0641794204711914,2.234476089477539
1759864126465320200,2.9733203125,9.338736534118652,1.9970557689666748,2.2293782234191895
1759864126475318800,2.98331884765625,9.356108665466309,1.906886100769043,2.2354867458343506
1759864126485317600,2.993317626953125,9.372889518737793,1.7903517484664917,2.2614035606384277
1759864126495316500,3.00331640625,9.389479637145996,1.647562026977539,2.3007798194885254
1759864126505315300,3.0133154296875,9.40644359588623,1.4895410537719727,2.338902235031128
1759864126515314000,3.02331396484375,9.422769546508789,1.3359110355377197,2.3658225536346436
1759864126525313000,3.03331298828125,9.438766479492188,1.2087717056274414,2.370427370071411
1759864126535312000,3.043311767578125,9.456154823303223,1.1216503381729126,2.3438057899475098
1759864126545310700,3.053310791015625,9.471487998962402,1.0682047605514526,2.306563377380371
1759864126555309800,3.063309814453125,9.4826078414917,1.0307519435882568,2.277735948562622
1759864126565308700,3.07330859375,9.487960815429688,0.9933314919471741,2.2720632553100586
1759864126575307800,3.083307861328125,9.489090919494629,0.9511048197746277,2.2853734493255615
1759864126585306600,3.093306640625,9.482380867004395,0.9133582711219788,2.328221559524536
1759864126595305700,3.1033056640625,9.470600128173828,0.8884947896003723,2.3850948810577393
1759864126605304800,3.113304931640625,9.459636688232422,0.8830326795578003,2.430208206176758
1759864126615304000,3.123303955078125,9.452754974365234,0.895722508430481,2.4522411823272705
1759864126625302800,3.133302734375,9.45192813873291,0.9251764416694641,2.4444797039031982
1759864126635302000,3.143302001953125,9.456681251525879,0.9661553502082825,2.4099998474121094
1759864126645301000,3.153301025390625,9.464067459106445,1.0116268396377563,2.361865997314453
1759864126655300000,3.163300048828125,9.471664428710938,1.0542789697647095,2.312234878540039
1759864126665299200,3.17329931640625,9.478203773498535,1.0875416994094849,2.269644260406494
1759864126675298800,3.183298828125,9.482881546020508,1.1036750078201294,2.2421491146087646
1759864126685298000,3.1932978515625,9.485076904296875,1.0972115993499756,2.236025333404541
1759864126695297000,3.203297119140625,9.489093780517578,1.0679597854614258,2.233147144317627
1759864126705296100,3.213296142578125,9.493438720703125,1.0368643999099731,2.229328155517578
1759864126715295200,3.223295166015625,9.498653411865234,1.0091501474380493,2.2198143005371094
1759864126735293200,3.243293212890625,9.507743835449219,0.9857906103134155,2.1912121772766113
1759864126745292300,3.253292236328125,9.511219024658203,0.9899660348892212,2.1741838455200195
1759864126755291400,3.26329150390625,9.513642311096191,0.9983344674110413,2.159700393676758
1759864126765290500,3.27329052734375,9.515328407287598,1.0045528411865234,2.149366617202759
1759864126775289300,3.283289306640625,9.517363548278809,1.0049192905426025,2.140165328979492
1759864126785288400,3.293288330078125,9.520294189453125,1.0009516477584839,2.128960609436035
1759864126795287600,3.30328759765625,9.523221969604492,0.997442364692688,2.117483377456665
1759864126805286700,3.31328662109375,9.524750709533691,0.9991402626037598,2.109790086746216
1759864126815285500,3.323285400390625,9.524256706237793,1.0096395015716553,2.107020139694214
1759864126825284600,3.33328466796875,9.521968841552734,1.0297528505325317,2.107626438140869
1759864126835283500,3.343283447265625,9.518699645996094,1.0571353435516357,2.1088407039642334
1759864126845282300,3.3532822265625,9.514717102050781,1.0851763486862183,2.1125638484954834
1759864126855281200,3.36328125,9.510193824768066,1.106003999710083,2.122107982635498
1759864126865280000,3.373280029296875,9.506431579589844,1.1166467666625977,2.1333634853363037
1759864126875278600,3.383278564453125,9.505196571350098,1.1176327466964722,2.1383447647094727
1759864126885276700,3.393276611328125,9.506375312805176,1.1084837913513184,2.1378650665283203
1759864126895274500,3.4032744140625,9.508997917175293,1.0895788669586182,2.135920524597168
1759864126905272600,3.4132724609375,9.511788368225098,1.065335750579834,2.135725259780884
1759864126915271200,3.423271240234375,9.513776779174805,1.043427586555481,2.1376829147338867
1759864126925270000,3.43327001953125,9.514456748962402,1.0301601886749268,2.141087532043457
1759864126935268900,3.443268798828125,9.51401138305664,1.0256707668304443,2.145219326019287
1759864126945267500,3.453267333984375,9.51298713684082,1.0237890481948853,2.1506500244140625
1759864126955265800,3.463265869140625,9.512483596801758,1.019744873046875,2.154797077178955
1759864126965264400,3.473264404296875,9.512750625610352,1.0119051933288574,2.157315254211426
1759864126975263200,3.48326318359375,9.513297080993652,1.0046643018722534,2.158292531967163
1759864126985261800,3.49326171875,9.513484954833984,1.0038284063339233,2.1578502655029297
1759864126995260700,3.5032607421875,9.512764930725098,1.0135703086853027,2.1564693450927734
1759864127005259300,3.51325927734375,9.510149955749512,1.036996841430664,2.1568636894226074
1759864127015258000,3.523258056640625,9.505727767944336,1.0743452310562134,2.1580793857574463
1759864127025257000,3.533257080078125,9.500204086303711,1.1215873956680298,2.1583635807037354
1759864127035255800,3.543255859375,9.494765281677246,1.1729686260223389,2.1549832820892334
1759864127045254400,3.55325439453125,9.49036693572998,1.223526120185852,2.146226406097412
1759864127055253200,3.563253173828125,9.487049102783203,1.2724831104278564,2.1323859691619873
1759864127065251800,3.573251953125,9.484066009521484,1.321020245552063,2.116075277328491
1759864127095248100,3.603248046875,9.477821350097656,1.4556126594543457,2.054868221282959
1759864127105247000,3.6132470703125,9.475666046142578,1.4840271472930908,2.04445219039917
1759864127115245600,3.62324560546875,9.47244930267334,1.5046330690383911,2.044297218322754
1759864127125244400,3.633244384765625,9.468144416809082,1.5245873928070068,2.049452543258667
1759864127135243300,3.6432431640625,9.46288013458252,1.5477087497711182,2.056422472000122
1759864127145241900,3.653241943359375,9.457427978515625,1.5706299543380737,2.064112901687622
1759864127155240700,3.66324072265625,9.452528953552246,1.5870561599731445,2.0739638805389404
1759864127165239600,3.673239501953125,9.449532508850098,1.5916485786437988,2.0840773582458496
1759864127175238100,3.683238037109375,9.449128150939941,1.5836535692214966,2.09197998046875
1759864127185237800,3.69323779296875,9.450718879699707,1.565779685974121,2.09824275970459
1759864127195237400,3.7032373046875,9.452683448791504,1.5419617891311646,2.1070120334625244
1759864127205236700,3.71323681640625,9.453981399536133,1.514565110206604,2.1210148334503174
1759864127215235600,3.723235595703125,9.454622268676758,1.4850292205810547,2.1389706134796143
1759864127225234200,3.733234130859375,9.455212593078613,1.4544587135314941,2.157287359237671
1759864127235233000,3.74323291015625,9.456513404846191,1.4215434789657593,2.1734633445739746
1759864127245231900,3.75323193359375,9.459126472473145,1.3857457637786865,2.185180425643921
1759864127255230200,3.763230224609375,9.463540077209473,1.347030758857727,2.1902716159820557
1759864127265229000,3.77322900390625,9.46969223022461,1.3076035976409912,2.1875715255737305
1759864127275228000,3.783227783203125,9.476688385009766,1.2689801454544067,2.1800105571746826
1759864127285226200,3.793226318359375,9.483394622802734,1.2328786849975586,2.1715450286865234
1759864127295224300,3.803224365234375,9.48887825012207,1.2017534971237183,2.1650311946868896
1759864127305223000,3.813222900390625,9.492609024047852,1.176357388496399,2.162623643875122
1759864127315221800,3.8232216796875,9.494543075561523,1.1560943126678467,2.165055513381958
1759864127325220400,3.833220458984375,9.494897842407227,1.1415411233901978,2.171217918395996
1759864127335219200,3.84321923828125,9.494576454162598,1.1333222389221191,2.176917314529419
1759864127345217800,3.8532177734375,9.494370460510254,1.131084680557251,2.178980827331543
1759864127355216600,3.863216552734375,9.494665145874023,1.1341075897216797,2.1761226654052734
1759864127365215200,3.87321533203125,9.495399475097656,1.1413044929504395,2.169144868850708
1759864127375214000,3.883214111328125,9.496225357055664,1.1517270803451538,2.160003900527954
1759864127385212700,3.893212646484375,9.496793746948242,1.1646720170974731,2.1505417823791504
1759864127395211500,3.90321142578125,9.497025489807129,1.1790512800216675,2.1416656970977783
1759864127405210000,3.913210205078125,9.49683666229248,1.1934422254562378,2.1345174312591553
1759864127415209000,3.923208984375,9.49625301361084,1.2084192037582397,2.128680944442749
1759864127425207800,3.933207763671875,9.495681762695312,1.2235134840011597,2.12259840965271
1759864127435206400,3.943206298828125,9.495412826538086,1.2364259958267212,2.1163089275360107
1759864127445205200,3.953205322265625,9.495949745178223,1.2461098432540894,2.1082041263580322
1759864127455203800,3.963203857421875,9.497496604919434,1.2534992694854736,2.0968258380889893
1759864127465202700,3.97320263671875,9.499861717224121,1.2595784664154053,2.082418203353882
1759864127475201300,3.983201171875,9.502299308776855,1.267826795578003,2.0662269592285156
1759864127485200100,3.9932001953125,9.504203796386719,1.2836097478866577,2.0476412773132324
1759864127495199000,4.003198974609375,9.505645751953125,1.3080742359161377,2.0253446102142334
1759864127505197600,4.013197509765625,9.507176399230957,1.3358254432678223,1.999882698059082
1759864127515196400,4.023196533203125,9.509202003479004,1.3607066869735718,1.973305583000183
1759864127525195300,4.0331953125,9.511789321899414,1.378769040107727,1.948136329650879
1759864127535194000,4.043194091796875,9.515092849731445,1.3885482549667358,1.9249203205108643
1759864127545192700,4.053192626953125,9.518962860107422,1.3914015293121338,1.9036074876785278
1759864127555192000,4.063192138671875,9.52297306060791,1.390956997871399,1.8837730884552002
1759864127565191000,4.07319091796875,9.526603698730469,1.39162278175354,1.8648308515548706
1759864127575189800,4.083189697265625,9.529092788696289,1.399340033531189,1.8462448120117188
1759864127585188600,4.093188720703125,9.529570579528809,1.419904351234436,1.827987551689148
1759864127595188200,4.103188232421875,9.527196884155273,1.4555813074111938,1.8122297525405884
1759864127605187000,4.11318701171875,9.521218299865723,1.5064878463745117,1.8020185232162476
1759864127615185700,4.123185546875,9.511560440063477,1.571774959564209,1.7972519397735596
1759864127625184500,4.1331845703125,9.499114990234375,1.6475858688354492,1.7951722145080566
1759864127635183400,4.143183349609375,9.484368324279785,1.730422019958496,1.7952075004577637
1759864127645182500,4.153182373046875,9.467692375183105,1.8187592029571533,1.7959102392196655
1759864127655181300,4.163181396484375,9.450117111206055,1.9110461473464966,1.7926450967788696
1759864127665180200,4.17318017578125,9.4337797164917,1.9998583793640137,1.7817749977111816
1759864127675179000,4.183178955078125,9.421582221984863,2.0730459690093994,1.7625682353973389
1759864127685177900,4.193177734375,9.41609001159668,2.1209254264831543,1.7347354888916016
1759864127695176700,4.2031767578125,9.418457984924316,2.140059471130371,1.6979936361312866
1759864127705175800,4.21317578125,9.427399635314941,2.1328766345977783,1.656914234161377
1759864127715174700,4.223174560546875,9.441161155700684,2.1032347679138184,1.6159393787384033
1759864127725173200,4.23317333984375,9.457817077636719,2.05600905418396,1.5788882970809937
1759864127735172000,4.243172119140625,9.47485637664795,2.0004537105560303,1.547788381576538
1759864127745171200,4.253171142578125,9.490093231201172,1.9461355209350586,1.5235044956207275
1759864127755170000,4.263170166015625,9.501891136169434,1.899620532989502,1.5086032152175903
1759864127765169000,4.2731689453125,9.509808540344238,1.864749550819397,1.5022072792053223
1759864127775167700,4.283167724609375,9.514819145202637,1.841246485710144,1.499468207359314
1759864127785166600,4.29316650390625,9.518917083740234,1.8237249851226807,1.494864583015442
1759864127795165400,4.30316552734375,9.524185180664062,1.8041554689407349,1.4850268363952637
1759864127805164300,4.313164306640625,9.532028198242188,1.7764480113983154,1.4680111408233643
1759864127815163100,4.3231630859375,9.542678833007812,1.7383710145950317,1.4442024230957031
1759864127825162000,4.333161865234375,9.555329322814941,1.6922205686569214,1.4150776863098145
1759864127835160800,4.343160888671875,9.56855583190918,1.643437147140503,1.3828338384628296
1759864127845159700,4.35315966796875,9.58091926574707,1.6001079082489014,1.3475991487503052
1759864127855158500,4.363158447265625,9.591070175170898,1.5703158378601074,1.3099147081375122
1759864127865157400,4.373157470703125,9.598240852355957,1.5578269958496094,1.27174711227417
1759864127875155700,4.38315576171875,9.60262393951416,1.5615971088409424,1.2334553003311157
1759864127885154300,4.393154296875,9.605182647705078,1.5764390230178833,1.1940230131149292
1759864127895152400,4.40315234375,9.606890678405762,1.5948467254638672,1.15520441532135
1759864127905150500,4.413150390625,9.608159065246582,1.6128201484680176,1.119138240814209
1759864127915149000,4.423149169921875,9.609535217285156,1.6237099170684814,1.0912327766418457
1759864127925148000,4.43314794921875,9.611795425415039,1.622733235359192,1.0726163387298584
1759864127935146800,4.443146728515625,9.615174293518066,1.6087706089019775,1.063323736190796
1759864127945145300,4.453145263671875,9.619329452514648,1.5843558311462402,1.0624052286148071
1759864127955144200,4.463144287109375,9.623594284057617,1.5561938285827637,1.0654032230377197
1759864127965142800,4.473142822265625,9.626897811889648,1.532682180404663,1.0696296691894531
1759864127975140900,4.483140869140625,9.628668785095215,1.5191411972045898,1.0729942321777344
1759864127985139500,4.493139404296875,9.628732681274414,1.5168179273605347,1.0757066011428833
1759864128005136400,4.513136474609375,9.62683391571045,1.5212116241455078,1.0864496231079102
1759864128015135000,4.523135009765625,9.626944541931152,1.5114314556121826,1.099042534828186
1759864128025133800,4.5331337890625,9.628302574157715,1.4907865524291992,1.1152236461639404
1759864128035132400,4.54313232421875,9.630733489990234,1.4633108377456665,1.130517840385437
1759864128045131300,4.55313134765625,9.634096145629883,1.4332802295684814,1.140297532081604
1759864128055129900,4.5631298828125,9.638052940368652,1.404139518737793,1.1431121826171875
1759864128065128700,4.573128662109375,9.642291069030762,1.3786035776138306,1.1384429931640625
1759864128075126800,4.583126708984375,9.64677619934082,1.3553835153579712,1.12828528881073
1759864128085125400,4.59312548828125,9.651338577270508,1.3317821025848389,1.117319107055664
1759864128095124200,4.603124267578125,9.655729293823242,1.3061425685882568,1.1096253395080566
1759864128105123000,4.613123046875,9.65947437286377,1.2808783054351807,1.1064814329147339
1759864128135119400,4.643119384765625,9.663643836975098,1.2506376504898071,1.1046583652496338
1759864128145118000,4.653117919921875,9.660783767700195,1.2719124555587769,1.1053929328918457
1759864128155116800,4.66311669921875,9.654936790466309,1.3146376609802246,1.106485366821289
1759864128167123000,4.675123046875,9.646413803100586,1.3762316703796387,1.1059247255325317
1759864128177122300,4.685122314453125,9.636534690856934,1.4476618766784668,1.1008442640304565
1759864128187121400,4.695121337890625,9.62723445892334,1.5148944854736328,1.0917109251022339
1759864128197120800,4.705120849609375,9.619803428649902,1.5691605806350708,1.0805141925811768
1759864128207120400,4.715120361328125,9.61413860321045,1.6098393201828003,1.0710439682006836
1759864128217119200,4.725119140625,9.609807014465332,1.6387746334075928,1.0660274028778076
1759864128227117800,4.735117919921875,9.606224060058594,1.6589646339416504,1.0670870542526245
1759864128237116700,4.74511669921875,9.602635383605957,1.6745768785476685,1.074980616569519
1759864128247115500,4.755115478515625,9.598803520202637,1.68809974193573,1.0879673957824707
1759864128257114000,4.765114013671875,9.59483814239502,1.7008177042007446,1.1030268669128418
1759864128267113000,4.775113037109375,9.591739654541016,1.7088992595672607,1.1173973083496094
1759864128277112300,4.7851123046875,9.591387748718262,1.7054436206817627,1.1256672143936157
1759864128287111200,4.795111083984375,9.595011711120605,1.6858278512954712,1.1243314743041992
1759864128297110800,4.80511083984375,9.601969718933105,1.6515434980392456,1.1157821416854858
1759864128307109400,4.815109375,9.610483169555664,1.6092536449432373,1.1042174100875854
1759864128317108200,4.825108154296875,9.618185997009277,1.56968092918396,1.0940724611282349
1759864128327106800,4.83510693359375,9.62354564666748,1.5416138172149658,1.0868167877197266
1759864128337105700,4.845105712890625,9.626495361328125,1.527174949645996,1.0810610055923462
1759864128347104300,4.855104248046875,9.628076553344727,1.5232292413711548,1.0725170373916626
1759864128357103000,4.86510302734375,9.629644393920898,1.523513913154602,1.0579386949539185
1759864128367101700,4.875101806640625,9.632491111755371,1.5198720693588257,1.0370618104934692
1759864128377101000,4.88510107421875,9.637264251708984,1.5068855285644531,1.011339545249939
1759864128387100000,4.895099853515625,9.643781661987305,1.4838337898254395,0.9829003214836121
1759864128397098500,4.905098388671875,9.651012420654297,1.4554232358932495,0.9539850354194641
1759864128407097300,4.915097412109375,9.658041954040527,1.4263803958892822,0.9263055920600891
1759864128417096200,4.92509619140625,9.664030075073242,1.4017317295074463,0.9011372923851013
1759864128427094800,4.9350947265625,9.668828964233398,1.3835285902023315,0.8774762153625488
1759864128437093600,4.94509375,9.67276668548584,1.3703385591506958,0.8544789552688599
1759864128447092200,4.95509228515625,9.676302909851074,1.3598157167434692,0.8309314250946045
1759864128457091000,4.965091064453125,9.67969799041748,1.3504959344863892,0.8062241673469543
1759864128467090000,4.97508984375,9.683070182800293,1.3412195444107056,0.7808054685592651
1759864128477088500,4.985088623046875,9.68632698059082,1.331392765045166,0.7568646669387817
1759864128487087400,4.99508740234375,9.689223289489746,1.3223720788955688,0.7353014945983887
1759864128497086000,5.0050859375,9.691408157348633,1.3160532712936401,0.7176331877708435
1759864128507084800,5.015084716796875,9.692593574523926,1.3144234418869019,0.7044872641563416
1759864128517083600,5.025083740234375,9.692700386047363,1.3179835081100464,0.6963282823562622
1759864128527082200,5.035082275390625,9.691998481750488,1.325379490852356,0.6920413374900818
1759864128537081000,5.0450810546875,9.690815925598145,1.3352760076522827,0.6895743608474731
1759864128547080000,5.055079833984375,9.689375877380371,1.3469046354293823,0.6871827244758606
1759864128557078500,5.06507861328125,9.687796592712402,1.3596081733703613,0.6844202876091003
1759864128567077400,5.075077392578125,9.686052322387695,1.3728282451629639,0.6827272772789001
1759864128577076200,5.085076171875,9.6839599609375,1.3871309757232666,0.6834996938705444
1759864128587074800,5.09507470703125,9.681343078613281,1.4039111137390137,0.6863088011741638
1759864128597073700,5.10507373046875,9.678145408630371,1.422706961631775,0.6926741003990173
1759864128607072300,5.115072265625,9.674473762512207,1.4423738718032837,0.7032179832458496
1759864128617071000,5.125071044921875,9.671066284179688,1.4596121311187744,0.7144169807434082
1759864128627069700,5.135069580078125,9.66889476776123,1.4693143367767334,0.7238541841506958
1759864128637068500,5.145068603515625,9.668758392333984,1.4672290086746216,0.7298957705497742
1759864128647067400,5.1550673828125,9.670710563659668,1.45353102684021,0.7314379811286926
1759864128657066200,5.165066162109375,9.674166679382324,1.4312524795532227,0.7296490669250488
1759864128667065000,5.175065185546875,9.678522109985352,1.404127836227417,0.7245782613754272
1759864128677064000,5.18506396484375,9.682971000671387,1.3769302368164062,0.7172945737838745
1759864128687062800,5.195062744140625,9.68628978729248,1.3557289838790894,0.7128575444221497
1759864128697062000,5.205061767578125,9.68742847442627,1.3464103937149048,0.7150529623031616
1759864128707060700,5.215060791015625,9.68564224243164,1.3534420728683472,0.7258962392807007
1759864128717059800,5.225059814453125,9.681138038635254,1.3764742612838745,0.7424721121788025
1759864128727059000,5.235058837890625,9.674806594848633,1.411267638206482,0.7594891786575317
1759864128737057800,5.245057861328125,9.66766357421875,1.4524048566818237,0.7727802395820618
1759864128747057000,5.255056884765625,9.660395622253418,1.4965952634811401,0.7793322801589966
1759864128757056000,5.265055908203125,9.653594970703125,1.54116690158844,0.7767100930213928
1759864128767055000,5.27505517578125,9.647172927856445,1.5844234228134155,0.7694429755210876
1759864128777054200,5.28505419921875,9.642109870910645,1.6222851276397705,0.7538521885871887
1759864128787053300,5.29505322265625,9.638753890991211,1.6508785486221313,0.7344470024108887
1759864128797052400,5.305052490234375,9.637170791625977,1.6689283847808838,0.7141442894935608
1759864128807051500,5.315051513671875,9.637372970581055,1.6773638725280762,0.6912827491760254
1759864128817050600,5.325050537109375,9.639073371887207,1.6785577535629272,0.6641442775726318
1759864128827049700,5.3350498046875,9.641703605651855,1.67529296875,0.6335057616233826
1759864128837048800,5.345048828125,9.644896507263184,1.6683460474014282,0.6024700403213501
1759864128847048000,5.3550478515625,9.648887634277344,1.65567147731781,0.5727987885475159
1759864128857047000,5.365047119140625,9.653430938720703,1.6377840042114258,0.5470989942550659
1759864128867046000,5.3750458984375,9.657699584960938,1.618569016456604,0.5286458730697632
1759864128877044500,5.38504443359375,9.66069507598877,1.603640079498291,0.5193197727203369
1759864128887042800,5.395042724609375,9.661947250366211,1.596571922302246,0.5177958011627197
1759864128907039500,5.41503955078125,9.659931182861328,1.6042554378509521,0.531486451625824
1759864128917038600,5.42503857421875,9.657012939453125,1.6181471347808838,0.5422973036766052
1759864128927037700,5.43503759765625,9.653519630432129,1.6355159282684326,0.5522924661636353
1759864128937036800,5.445036865234375,9.650504112243652,1.6512302160263062,0.5581989288330078
1759864128947035600,5.45503564453125,9.648582458496094,1.6617685556411743,0.5601494312286377
1759864128957034800,5.46503466796875,9.647871971130371,1.6658639907836914,0.5602264404296875
1759864128967033300,5.475033447265625,9.648277282714844,1.6632555723190308,0.5609962344169617
1759864128977032200,5.4850322265625,9.649343490600586,1.6556005477905273,0.565277099609375
1759864128987031000,5.495031005859375,9.650623321533203,1.6452940702438354,0.5734547972679138
1759864128997030000,5.50502978515625,9.651860237121582,1.6347379684448242,0.5827639102935791
1759864129007028700,5.51502880859375,9.653070449829102,1.624977946281433,0.5899622440338135
1759864129017027600,5.525027587890625,9.654516220092773,1.6157127618789673,0.5917501449584961
1759864129027026400,5.5350263671875,9.65664005279541,1.6053835153579712,0.5851750373840332
1759864129037025300,5.545025390625,9.659601211547852,1.5927497148513794,0.5706475377082825
1759864129047024000,5.555024169921875,9.663549423217773,1.5760084390640259,0.5499104857444763
1759864129057022700,5.565022705078125,9.668495178222656,1.5535142421722412,0.526471734046936
1759864129067021300,5.575021240234375,9.6741304397583,1.5251299142837524,0.5055340528488159
1759864129077020200,5.585020263671875,9.680052757263184,1.4922809600830078,0.48995721340179443
1759864129087018800,5.595018798828125,9.68568229675293,1.4577778577804565,0.48251816630363464
1759864129097017600,5.605017578125,9.690483093261719,1.4257042407989502,0.48196107149124146
1759864129107016400,5.615016357421875,9.693918228149414,1.4012231826782227,0.4846639633178711
1759864129117015000,5.62501513671875,9.695822715759277,1.3870704174041748,0.4872882068157196
1759864129127014000,5.635013916015625,9.696125984191895,1.3845839500427246,0.4883192479610443
1759864129137012500,5.645012451171875,9.694992065429688,1.3934179544448853,0.48568692803382874
1759864129147011300,5.65501123046875,9.693081855773926,1.4093213081359863,0.4778795540332794
1759864129157010200,5.66501025390625,9.690912246704102,1.4278061389923096,0.4668722152709961
1759864129167009000,5.675009033203125,9.68871784210205,1.44635808467865,0.4551616907119751
1759864129177008400,5.68500830078125,9.68660831451416,1.4637393951416016,0.44437655806541443
1759864129187007700,5.6950078125,9.684762954711914,1.478491187095642,0.4356725513935089
1759864129197007400,5.70500732421875,9.683484077453613,1.4883882999420166,0.43037858605384827
1759864129207007000,5.715007080078125,9.682787895202637,1.4935777187347412,0.4280577301979065
1759864129217005600,5.725005615234375,9.682207107543945,1.4978286027908325,0.42632174491882324
1759864129227004400,5.73500439453125,9.680818557739258,1.507086157798767,0.42523008584976196
1759864129237003300,5.745003173828125,9.677675247192383,1.527307152748108,0.4246470630168915
1759864129247001900,5.755001953125,9.67226791381836,1.561806082725525,0.42235198616981506
1759864129257000700,5.765000732421875,9.665217399597168,1.6067519187927246,0.415090411901474
1759864129266999800,5.774999755859375,9.657917022705078,1.6534607410430908,0.40136465430259705
1759864129276998700,5.78499853515625,9.651844024658203,1.6924469470977783,0.384583979845047
1759864129286997500,5.79499755859375,9.647420883178711,1.7201964855194092,0.37226906418800354
1759864129296996000,5.80499609375,9.643803596496582,1.7409335374832153,0.36957815289497375
1759864129306995000,5.814994873046875,9.639640808105469,1.761858582496643,0.37890076637268066
1759864129316993500,5.82499365234375,9.634116172790527,1.7870038747787476,0.4010043144226074
1759864129326992400,5.834992431640625,9.62726879119873,1.8163948059082031,0.4321715235710144
1759864129336991200,5.8449912109375,9.619848251342773,1.8469330072402954,0.46663376688957214
1759864129346989800,5.85498974609375,9.612861633300781,1.8747063875198364,0.49875113368034363
1759864129356988700,5.86498876953125,9.607281684875488,1.8964314460754395,0.5235079526901245
1759864129366987300,5.8749873046875,9.603601455688477,1.9104071855545044,0.539965033531189
1759864129376986000,5.884986083984375,9.601716995239258,1.916851282119751,0.5505531430244446
1759864129386985000,5.89498486328125,9.601571083068848,1.9153791666030884,0.5581565499305725
1759864129396983600,5.904983642578125,9.603048324584961,1.9059897661209106,0.564846396446228
1759864129406981600,5.914981689453125,9.606029510498047,1.8887159824371338,0.572113037109375
1759864129416980500,5.92498046875,9.61031436920166,1.8647805452346802,0.5786414742469788
1759864129426979000,5.93497900390625,9.61581039428711,1.8350794315338135,0.582283079624176
1759864129436978000,5.94497802734375,9.622513771057129,1.7998303174972534,0.5815572738647461
1759864129446976500,5.9549765625,9.630403518676758,1.759067416191101,0.575664222240448
1759864129456975000,5.96497509765625,9.639106750488281,1.7140789031982422,0.5656318068504333
1759864129466974000,5.974973876953125,9.64791488647461,1.6681113243103027,0.5527480244636536
1759864129476972500,5.98497265625,9.656091690063477,1.6252294778823853,0.5374950766563416
1759864129486971400,5.994971435546875,9.662938117980957,1.5890264511108398,0.5224994421005249
1759864129496970200,6.00497021484375,9.668004989624023,1.5619902610778809,0.5101498365402222
1759864129506968800,6.01496875,9.67105770111084,1.5457266569137573,0.5017473101615906
1759864129516967700,6.0249677734375,9.672033309936523,1.540743350982666,0.4982573986053467
1759864129526966500,6.034966552734375,9.671204566955566,1.5458430051803589,0.4985548257827759
1759864129536965000,6.044965087890625,9.669088363647461,1.5582325458526611,0.5010060667991638
1759864129546964000,6.0549638671875,9.666369438171387,1.5733853578567505,0.5061056613922119
1759864129556962600,6.064962646484375,9.663605690002441,1.587715744972229,0.5140659809112549
1759864129566961400,6.07496142578125,9.6610689163208,1.599960446357727,0.52369225025177
1759864129576960300,6.084960205078125,9.65893268585205,1.6094743013381958,0.533850908279419
1759864129586958800,6.094958740234375,9.657349586486816,1.6156299114227295,0.5438116788864136
1759864129596957700,6.104957763671875,9.65652084350586,1.617292881011963,0.5534957051277161
1759864129606956300,6.114956298828125,9.656533241271973,1.6142727136611938,0.5620272755622864
1759864129616955100,6.124955078125,9.656941413879395,1.60914945602417,0.5696514248847961
1759864129626954000,6.1349541015625,9.657838821411133,1.6021080017089844,0.5742757320404053
1759864129636952600,6.14495263671875,9.659074783325195,1.5947656631469727,0.573922872543335
1759864129646951400,6.154951416015625,9.660523414611816,1.587708830833435,0.5690867900848389
1759864129656950300,6.1649501953125,9.6619234085083,1.5817170143127441,0.5619597434997559
1759864129666948900,6.174948974609375,9.6631498336792,1.5766321420669556,0.5551153421401978
1759864129676947700,6.18494775390625,9.664302825927734,1.5714653730392456,0.5496653318405151
1759864129686946600,6.194946533203125,9.665467262268066,1.5652252435684204,0.5469852089881897
1759864129696945200,6.204945068359375,9.666895866394043,1.556728482246399,0.5459911227226257
1759864129706944500,6.214944580078125,9.668893814086914,1.5447733402252197,0.5445635914802551
1759864129716943400,6.224943359375,9.671456336975098,1.5297867059707642,0.541348397731781
1759864129726942200,6.234942138671875,9.674262046813965,1.513973355293274,0.5356382131576538
1759864129736940800,6.24494091796875,9.67674732208252,1.5011106729507446,0.5268924832344055
1759864129746939600,6.254939697265625,9.678367614746094,1.4945125579833984,0.5157692432403564
1759864129756938500,6.2649384765625,9.678946495056152,1.4944707155227661,0.5049188733100891
1759864129766937300,6.274937255859375,9.678304672241211,1.5012544393539429,0.4970357418060303
1759864129776936400,6.2849365234375,9.675983428955078,1.5169620513916016,0.4945297837257385
1759864129786935300,6.294935302734375,9.671385765075684,1.5452349185943604,0.49690645933151245
1759864129796934100,6.30493408203125,9.664310455322266,1.5874477624893188,0.5014832019805908
1759864129806933200,6.314933349609375,9.655228614807129,1.6398025751113892,0.5079296827316284
1759864129816932000,6.32493212890625,9.645305633544922,1.6952402591705322,0.5144209861755371
1759864129826931200,6.33493115234375,9.63585090637207,1.7468180656433105,0.5190288424491882
1759864129836930300,6.344930419921875,9.627264022827148,1.7930727005004883,0.5206413865089417
1759864129846929400,6.354929443359375,9.619100570678711,1.837398648262024,0.5169626474380493
1759864129856928500,6.364928466796875,9.610980033874512,1.8817284107208252,0.5084629654884338
1759864129866927400,6.37492724609375,9.60348129272461,1.9225621223449707,0.4972693622112274
1759864129876925700,6.38492578125,9.597475051879883,1.9550189971923828,0.48657771944999695
1759864129886924000,6.394924072265625,9.593655586242676,1.9752345085144043,0.4802175462245941
1759864129896923400,6.40492333984375,9.592058181762695,1.9833160638809204,0.4788109064102173
1759864129906921500,6.41492138671875,9.591971397399902,1.9832228422164917,0.48094213008880615
1759864129916920600,6.424920654296875,9.592179298400879,1.981563687324524,0.48362070322036743
1759864129926919400,6.43491943359375,9.592028617858887,1.9820786714553833,0.4844841957092285
1759864129936918300,6.444918212890625,9.591719627380371,1.9837191104888916,0.4838847517967224
1759864129946917400,6.45491748046875,9.592181205749512,1.9819334745407104,0.48206016421318054
1759864129956916500,6.46491650390625,9.5941743850708,1.9733457565307617,0.47760072350502014
1759864129966914800,6.474914794921875,9.598012924194336,1.9563748836517334,0.47025102376937866
1759864129976914000,6.484913818359375,9.603471755981445,1.9317618608474731,0.4604298770427704
1759864129986912800,6.494912841796875,9.609932899475098,1.9021891355514526,0.44860535860061646
1759864129996911900,6.504911865234375,9.616418838500977,1.8716223239898682,0.4380730092525482
1759864130006911000,6.514910888671875,9.622371673583984,1.8433167934417725,0.42722487449645996
1759864130016910000,6.52491015625,9.627830505371094,1.8169636726379395,0.417025089263916
1759864130026909200,6.5349091796875,9.632796287536621,1.7922662496566772,0.4091639518737793
1759864130036908300,6.544908203125,9.637248992919922,1.7695406675338745,0.4031584858894348
1759864130046907100,6.5549072265625,9.640806198120117,1.7514296770095825,0.39716091752052307
1759864130056906200,6.56490625,9.6432466506958,1.7393757104873657,0.39081308245658875
1759864130066905000,6.574905029296875,9.64492416381836,1.7313748598098755,0.3849123418331146
1759864130076904000,6.584904052734375,9.64642333984375,1.7240744829177856,0.3800843358039856
1759864130086902800,6.59490283203125,9.648161888122559,1.715043544769287,0.3768105208873749
1759864130096901600,6.604901611328125,9.650186538696289,1.7041256427764893,0.3744843304157257
1759864130106900500,6.614900390625,9.652307510375977,1.6925371885299683,0.37237149477005005
1759864130116899300,6.6248994140625,9.654335021972656,1.6815142631530762,0.36975619196891785
1759864130126898000,6.63489794921875,9.656288146972656,1.6711872816085815,0.36552754044532776
1759864130136896800,6.644896728515625,9.658342361450195,1.6603580713272095,0.360576868057251
1759864130146895400,6.654895263671875,9.660721778869629,1.6472653150558472,0.35688138008117676
1759864130156894200,6.664894287109375,9.663531303405762,1.6310652494430542,0.35520613193511963
1759864130166892800,6.674892822265625,9.666232109069824,1.6147047281265259,0.35647308826446533
1759864130176892400,6.684892333984375,9.6680326461792,1.6032956838607788,0.35913610458374023
1759864130186891800,6.694891845703125,9.668412208557129,1.600561261177063,0.36108532547950745
1759864130196890400,6.704890380859375,9.667466163635254,1.6066372394561768,0.3594385087490082
1759864130206890000,6.714889892578125,9.665477752685547,1.619899868965149,0.35333406925201416
1759864130216888800,6.724888916015625,9.662906646728516,1.6370965242385864,0.34429699182510376
1759864130226887700,6.7348876953125,9.660061836242676,1.6560133695602417,0.3334672451019287
1759864130236886500,6.744886474609375,9.656898498535156,1.6765573024749756,0.32224196195602417
1759864130246885400,6.754885498046875,9.653138160705566,1.699971318244934,0.3120860457420349
1759864130256884000,6.764884033203125,9.649009704589844,1.724928379058838,0.30268794298171997
1759864130266883600,6.774883544921875,9.645301818847656,1.7470927238464355,0.29359352588653564
1759864130276882200,6.784882080078125,9.64254093170166,1.763692855834961,0.28492000699043274
1759864130286881000,6.794881103515625,9.640841484069824,1.7742533683776855,0.27673524618148804
1759864130296879900,6.8048798828125,9.63990306854248,1.7802860736846924,0.27062010765075684
1759864130306878500,6.81487841796875,9.6393404006958,1.7837835550308228,0.2676202952861786
1759864130316877300,6.824877197265625,9.6386079788208,1.7877073287963867,0.267826110124588
1759864130326876000,6.8348759765625,9.63679027557373,1.797227382659912,0.2694791257381439
1759864130336874800,6.844874755859375,9.633376121520996,1.8150787353515625,0.27189701795578003
1759864130346873600,6.85487353515625,9.628570556640625,1.8402339220046997,0.273012638092041
1759864130356872200,6.8648720703125,9.62337589263916,1.8677698373794556,0.26918578147888184
1759864130366871000,6.87487109375,9.618819236755371,1.8922455310821533,0.2609633803367615
1759864130376870000,6.884869873046875,9.615561485290527,1.910046935081482,0.2511293888092041
1759864130386868500,6.894868408203125,9.613263130187988,1.9226716756820679,0.24268071353435516
1759864130396867300,6.904867431640625,9.610636711120605,1.9362258911132812,0.2388835847377777
1759864130406866200,6.9148662109375,9.606399536132812,1.956839919090271,0.24132972955703735
1759864130416864800,6.92486474609375,9.600147247314453,1.9862443208694458,0.24977029860019684
1759864130426863600,6.934863525390625,9.592694282531738,2.0206475257873535,0.2599855363368988
1759864130436862200,6.9448623046875,9.585084915161133,2.0552170276641846,0.2694404125213623
1759864130446861000,6.954861083984375,9.577740669250488,2.088130474090576,0.2774423658847809
1759864130456859600,6.964859619140625,9.57039737701416,2.1205270290374756,0.2850179970264435
1759864130466858500,6.9748583984375,9.563035011291504,2.1523640155792236,0.29338258504867554
1759864130476857300,6.984857421875,9.55603313446045,2.181609630584717,0.3052786886692047
1759864130486856000,6.99485595703125,9.549869537353516,2.2059073448181152,0.32300591468811035
1759864130496854800,7.004854736328125,9.544878959655762,2.223921298980713,0.34617558121681213
1759864130506853600,7.014853515625,9.541303634643555,2.2348365783691406,0.3733680248260498
1759864130516852200,7.024852294921875,9.539292335510254,2.238276481628418,0.4029903709888458
1759864130526851000,7.03485107421875,9.53902816772461,2.233992338180542,0.4319572150707245
1759864130536849700,7.044849609375,9.540731430053711,2.221818685531616,0.456434965133667
1759864130546848500,7.0548486328125,9.544732093811035,2.2007839679718018,0.47437021136283875
1759864130556847000,7.06484716796875,9.551119804382324,2.170491933822632,0.48524144291877747
1759864130566846000,7.074845947265625,9.559520721435547,2.131943702697754,0.4906752407550812
1759864130576844500,7.084844482421875,9.568777084350586,2.0896079540252686,0.49236026406288147
1759864130586843100,7.094843017578125,9.577564239501953,2.0494229793548584,0.4904201626777649
1759864130596842000,7.104842041015625,9.585155487060547,2.014479398727417,0.4868801534175873
1759864130606840800,7.1148408203125,9.591486930847168,1.9851845502853394,0.4824959337711334
1759864130616839400,7.12483935546875,9.59678840637207,1.9605928659439087,0.47761210799217224
1759864130626838300,7.13483837890625,9.601289749145508,1.9394407272338867,0.4734753668308258
1759864130636837000,7.144837158203125,9.60523796081543,1.92064368724823,0.4700101912021637
1759864130646835700,7.154835693359375,9.608694076538086,1.9041346311569214,0.4665352702140808
1759864130656834600,7.16483447265625,9.611638069152832,1.890383005142212,0.4617937207221985
1759864130666833200,7.174833251953125,9.614424705505371,1.8776882886886597,0.4555395543575287
1759864130676832000,7.18483203125,9.617227554321289,1.8650661706924438,0.4481489360332489
1759864130686830800,7.194830810546875,9.620328903198242,1.8509260416030884,0.44014814496040344
1759864130696829400,7.204829345703125,9.623886108398438,1.8343337774276733,0.43177294731140137
1759864130706828300,7.214828369140625,9.627870559692383,1.815491795539856,0.42248234152793884
1759864130716827000,7.224826904296875,9.632331848144531,1.794294834136963,0.4111766815185547
1759864130726825700,7.23482568359375,9.63715648651123,1.7711538076400757,0.3982694745063782
1759864130736824600,7.244824462890625,9.64206314086914,1.7469696998596191,0.38612961769104004
1759864130746823200,7.2548232421875,9.646900177001953,1.7223960161209106,0.3755835294723511
1759864130756822000,7.264822021484375,9.651583671569824,1.6978724002838135,0.3668040633201599
1759864130766820900,7.27482080078125,9.656218528747559,1.6729063987731934,0.3594491183757782
1759864130776819500,7.2848193359375,9.660454750061035,1.6497262716293335,0.35270607471466064
1759864130786818300,7.294818359375,9.663442611694336,1.6334269046783447,0.346646249294281
1759864130796817200,7.304817138671875,9.664544105529785,1.628272294998169,0.34015220403671265
1759864130806815700,7.314815673828125,9.663606643676758,1.6352672576904297,0.3331674039363861
1759864130816814600,7.324814697265625,9.660849571228027,1.6530715227127075,0.32516199350357056
1759864130826813200,7.334813232421875,9.656638145446777,1.679337739944458,0.3154967129230499
1759864130836812000,7.34481201171875,9.651873588562012,1.7086855173110962,0.3034895360469818
1759864130846811000,7.354810791015625,9.647624015808105,1.7347966432571411,0.2901999354362488
1759864130856809700,7.364809814453125,9.644489288330078,1.7543069124221802,0.2767983078956604
1759864130866808600,7.37480859375,9.642171859741211,1.7690331935882568,0.26348698139190674
1759864130876807400,7.384807373046875,9.640179634094238,1.781790018081665,0.2500945031642914
1759864130886805500,7.394805419921875,9.638386726379395,1.793039321899414,0.23852680623531342
1759864130896803600,7.404803466796875,9.636951446533203,1.8020823001861572,0.22816410660743713
1759864130906802400,7.414802490234375,9.636094093322754,1.8079919815063477,0.21734248101711273
1759864130916801300,7.42480126953125,9.636013984680176,1.809779167175293,0.2057221233844757
1759864130926799600,7.434799560546875,9.636774063110352,1.807106852531433,0.1932268589735031
1759864130936797700,7.444797607421875,9.638056755065918,1.801667332649231,0.1795528531074524
1759864130946796000,7.454796142578125,9.639204025268555,1.797097086906433,0.16301526129245758
1759864130956795000,7.464794921875,9.639500617980957,1.7973053455352783,0.14178945124149323
1759864130966793700,7.474793701171875,9.638701438903809,1.8034592866897583,0.11550971120595932
1759864130976792600,7.48479248046875,9.637261390686035,1.8128241300582886,0.08510982245206833
1759864130986791400,7.49479150390625,9.635960578918457,1.821021556854248,0.05034494400024414
1759864130996790300,7.504790283203125,9.635379791259766,1.8247323036193848,0.013782952912151814
1759864131006789000,7.5147890625,9.635580062866211,1.8235934972763062,-0.02201440930366516
1759864131016788000,7.5247880859375,9.63607406616211,1.8202874660491943,-0.05478395149111748
1759864131026786800,7.534786865234375,9.63625431060791,1.818223476409912,-0.08392901718616486
1759864131036785700,7.54478564453125,9.635675430297852,1.8200384378433228,-0.1077512800693512
1759864131056783400,7.564783447265625,9.632155418395996,1.8364390134811401,-0.13950105011463165
1759864131066782200,7.5747822265625,9.630227088928223,1.8457812070846558,-0.14900347590446472
1759864131076780300,7.5847802734375,9.629132270812988,1.850997805595398,-0.1549677848815918
1759864131086779100,7.594779052734375,9.629096984863281,1.850956678390503,-0.15760456025600433
1759864131096778000,7.604778076171875,9.629965782165527,1.8466638326644897,-0.15483875572681427
1759864131106776800,7.61477685546875,9.63140869140625,1.8399142026901245,-0.14512889087200165
1759864131116775700,7.624775634765625,9.632875442504883,1.8335306644439697,-0.12750935554504395
1759864131126774500,7.6347744140625,9.634012222290039,1.8291256427764893,-0.10245302319526672
1759864131136773400,7.6447734375,9.63460636138916,1.8274041414260864,-0.07299041748046875
1759864131146772200,7.654772216796875,9.634613990783691,1.828311562538147,-0.043240226805210114
1759864131156771000,7.66477099609375,9.634055137634277,1.831687331199646,-0.01693717949092388
1759864131166770000,7.67477001953125,9.633100509643555,1.8367756605148315,0.0029620646964758635
1759864131176768500,7.6847685546875,9.632086753845215,1.8420147895812988,0.016286972910165787
1759864131186768000,7.694767822265625,9.631373405456543,1.8456329107284546,0.02598850056529045
1759864131196767500,7.704767578125,9.631316184997559,1.8457696437835693,0.035615283995866776
1759864131206766300,7.714766357421875,9.632190704345703,1.8409022092819214,0.048710841685533524
1759864131216765000,7.724764892578125,9.633889198303223,1.8315120935440063,0.06429295241832733
1759864131226764000,7.734763916015625,9.636155128479004,1.8189010620117188,0.08056648075580597
1759864131236763600,7.744763671875,9.638620376586914,1.8051165342330933,0.09455591440200806
1759864131246763000,7.754762939453125,9.641182899475098,1.7907882928848267,0.10508169233798981
1759864131256761900,7.764761962890625,9.64394474029541,1.7753715515136719,0.11303155869245529
1759864131266760700,7.7747607421875,9.64692497253418,1.758570909500122,0.12105908989906311
1759864131276759300,7.78475927734375,9.650046348571777,1.7406641244888306,0.1306682676076889
1759864131286758100,7.794758056640625,9.652748107910156,1.7247705459594727,0.1414249986410141
1759864131296757000,7.804757080078125,9.65443229675293,1.714421272277832,0.15190444886684418
1759864131306755600,7.814755615234375,9.655424118041992,1.7079566717147827,0.161404550075531
1759864131316754400,7.82475439453125,9.654857635498047,1.710463047027588,0.16860710084438324
1759864131326753300,7.834753173828125,9.65276050567627,1.7217849493026733,0.1733768731355667
1759864131336751900,7.844751953125,9.649648666381836,1.738932728767395,0.17541414499282837
1759864131346750700,7.854750732421875,9.646087646484375,1.7585355043411255,0.17586509883403778
1759864131356749300,7.864749267578125,9.642563819885254,1.7778735160827637,0.1746753752231598
1759864131366748200,7.874748046875,9.639387130737305,1.7953258752822876,0.17147432267665863
1759864131376747500,7.88474755859375,9.636409759521484,1.8116332292556763,0.1672632098197937
1759864131386746400,7.894746337890625,9.633574485778809,1.8269433975219727,0.16399703919887543
1759864131396745200,7.9047451171875,9.630816459655762,1.8415346145629883,0.1628119945526123
1759864131406743800,7.914743896484375,9.628111839294434,1.8556115627288818,0.16294461488723755
1759864131416742700,7.92474267578125,9.625846862792969,1.8673871755599976,0.16223755478858948
1759864131426741500,7.934741455078125,9.624778747558594,1.8732243776321411,0.15826697647571564
1759864131436773400,7.9447734375,9.625642776489258,1.869466781616211,0.14992979168891907
1759864131456837600,7.964837646484375,9.634319305419922,1.825637698173523,0.1316365897655487
1759864131466869800,7.974869873046875,9.6386137008667,1.8031147718429565,0.1276027411222458
1759864131476901600,7.984901611328125,9.642330169677734,1.7832744121551514,0.1256428360939026
1759864131486933800,7.994933837890625,9.644429206848145,1.771831750869751,0.1264338344335556
1759864131496966000,8.0049658203125,9.644819259643555,1.7695986032485962,0.12794095277786255
1759864131506998000,8.014998046875,9.643964767456055,1.7741605043411255,0.12916289269924164
1759864131517030100,8.025030029296875,9.642937660217285,1.7796671390533447,0.13003478944301605
1759864131527062300,8.035062255859375,9.642545700073242,1.7817375659942627,0.13077794015407562
1759864131537094400,8.045094482421876,9.64318561553955,1.778160810470581,0.13227927684783936
1759864131547126300,8.055126220703125,9.644704818725586,1.7697546482086182,0.1342422515153885
1759864131557158400,8.065158447265626,9.646339416503906,1.7606180906295776,0.13690006732940674
1759864131567190500,8.0751904296875,9.647574424743652,1.7535377740859985,0.14068886637687683
1759864131577222400,8.085222412109376,9.648469924926758,1.7482327222824097,0.1452227085828781
1759864131587254500,8.095254638671875,9.649221420288086,1.7435764074325562,0.15112799406051636
1759864131597286700,8.10528662109375,9.650124549865723,1.737937331199646,0.1582605391740799
1759864131607318500,8.115318603515625,9.651300430297852,1.7306572198867798,0.16614151000976562
1759864131617350700,8.1253505859375,9.652778625488281,1.7215917110443115,0.1742667257785797
1759864131627382800,8.1353828125,9.654510498046875,1.710956335067749,0.18288762867450714
1759864131637414700,8.14541455078125,9.65635871887207,1.6994690895080566,0.19218845665454865
1759864131647446800,8.15544677734375,9.658207893371582,1.687622308731079,0.20329612493515015
1759864131657479000,8.16547900390625,9.660101890563965,1.6751469373703003,0.21612244844436646
1759864131667511000,8.175510986328124,9.662313461303711,1.6607061624526978,0.22833193838596344
1759864131677543000,8.18554296875,9.66504955291748,1.6431658267974854,0.2391895055770874
1759864131687575000,8.195574951171874,9.668055534362793,1.6239519119262695,0.2487093210220337
1759864131697607200,8.205607177734375,9.670863151550293,1.6059237718582153,0.2565147280693054
1759864131707639300,8.215639404296875,9.673208236694336,1.590818166732788,0.2621258497238159
1759864131717671400,8.22567138671875,9.674837112426758,1.580102801322937,0.2667897641658783
1759864131727703300,8.235703369140625,9.6757173538208,1.5739461183547974,0.271232932806015
1759864131737702100,8.2457021484375,9.676106452941895,1.5707499980926514,0.2758515179157257
1759864131747701000,8.255700927734376,9.67626953125,1.568865418434143,0.28080570697784424
1759864131757699600,8.265699462890625,9.67643928527832,1.5669512748718262,0.2855934798717499
1759864131767698400,8.275698486328125,9.676629066467285,1.5652529001235962,0.28848275542259216
1759864131777697000,8.285697021484374,9.676603317260742,1.5652832984924316,0.28916212916374207
1759864131787695900,8.29569580078125,9.67602825164795,1.5689647197723389,0.28845688700675964
1759864131797694700,8.30569482421875,9.674657821655273,1.5776193141937256,0.2872081995010376
1759864131807693600,8.315693603515625,9.672654151916504,1.5903273820877075,0.28462082147598267
1759864131817692200,8.325692138671876,9.670255661010742,1.6054857969284058,0.2809891700744629
1759864131827691000,8.33569091796875,9.667750358581543,1.6210079193115234,0.27804720401763916
1759864131837689600,8.345689697265625,9.665186882019043,1.6362767219543457,0.27774909138679504
1759864131847688400,8.3556884765625,9.662642478942871,1.6508574485778809,0.2799829840660095
1759864131857687300,8.365687255859376,9.660210609436035,1.6643410921096802,0.28404679894447327
1759864131867686000,8.375685791015625,9.657938003540039,1.6765689849853516,0.28934258222579956
1759864131877684700,8.385684814453125,9.65570068359375,1.688628077507019,0.2938960790634155
1759864131887682800,8.395682861328124,9.653203010559082,1.70280921459198,0.2941214144229889
1759864131897680600,8.4056806640625,9.650238990783691,1.7203586101531982,0.2891995310783386
1759864131907678700,8.4156787109375,9.646740913391113,1.7410802841186523,0.28178295493125916
1759864131917677600,8.425677490234374,9.642956733703613,1.7630443572998047,0.2746609151363373
1759864131927676200,8.43567626953125,9.639453887939453,1.7829526662826538,0.2690553665161133
1759864131937674500,8.445674560546875,9.63724136352539,1.7957963943481445,0.26281967759132385
1759864131947673300,8.45567333984375,9.63715934753418,1.7978174686431885,0.2517821490764618
1759864131957672400,8.46567236328125,9.639763832092285,1.7866041660308838,0.23104894161224365
1759864131967671600,8.475671630859376,9.64494514465332,1.762385368347168,0.19852979481220245
1759864131977670700,8.485670654296875,9.651285171508789,1.731609582901001,0.1568600982427597
1759864131987669500,8.49566943359375,9.656816482543945,1.7042392492294312,0.10886764526367188
1759864131997668600,8.505668701171874,9.660168647766113,1.6876213550567627,0.0589202456176281
1759864132007667700,8.515667724609376,9.660493850708008,1.6867533922195435,0.010234394110739231
1759864132017666800,8.525666748046875,9.657912254333496,1.7011420726776123,-0.03500029444694519
1759864132027666000,8.535666015625,9.653573989868164,1.7242764234542847,-0.07587751746177673
1759864132037664800,8.545664794921874,9.6487398147583,1.749241828918457,-0.11117672175168991
1759864132047663900,8.555663818359376,9.644537925720215,1.7701072692871094,-0.1413813829421997
1759864132057662700,8.565662841796875,9.641794204711914,1.7830630540847778,-0.16393844783306122
1759864132067661800,8.575661865234375,9.640698432922363,1.7875287532806396,-0.17903468012809753
1759864132077660700,8.58566064453125,9.640497207641602,1.7875298261642456,-0.18954379856586456
1759864132087659800,8.59565966796875,9.640413284301758,1.7870218753814697,-0.19841405749320984
1759864132097659000,8.605658935546876,9.640074729919434,1.78798246383667,-0.20606128871440887
1759864132107658000,8.615657958984375,9.639418601989746,1.7908134460449219,-0.212103933095932
1759864132117656800,8.62565673828125,9.63873291015625,1.7939486503601074,-0.21671529114246368
1759864132127656000,8.635656005859374,9.638493537902832,1.7950769662857056,-0.21800467371940613
1759864132137655000,8.645655029296876,9.639073371887207,1.7925384044647217,-0.21318748593330383
1759864132147654100,8.655654052734375,9.640525817871094,1.786192536354065,-0.20039865374565125
1759864132157653200,8.6656533203125,9.64266300201416,1.7769197225570679,-0.1788860559463501
1759864132167652400,8.67565234375,9.645364761352539,1.764822244644165,-0.15074557065963745
1759864132177651200,8.685651123046876,9.648183822631836,1.751781940460205,-0.11916523426771164
1759864132187651000,8.695651123046876,9.65067195892334,1.7397974729537964,-0.08955986052751541
1759864132197651000,8.70565087890625,9.652677536010742,1.7296253442764282,-0.06781403720378876
1759864132207650800,8.71565087890625,9.6543607711792,1.7205982208251953,-0.056842491030693054
1759864132217649700,8.725649658203125,9.65593147277832,1.711842656135559,-0.054510246962308884
1759864132227648800,8.735648681640624,9.657394409179688,1.7034869194030762,-0.0569658987224102
1759864132237647600,8.745647705078126,9.658712387084961,1.6958304643630981,-0.061749041080474854
1759864132247646000,8.75564599609375,9.659878730773926,1.6890310049057007,-0.06562434881925583
1759864132257643800,8.765643798828124,9.660810470581055,1.6836310625076294,-0.06719685345888138
1759864132267641900,8.775641845703126,9.661372184753418,1.6804136037826538,-0.06701565533876419
1759864132277640700,8.785640625,9.661444664001465,1.6800302267074585,-0.06606120616197586
1759864132287639300,8.795639404296875,9.660748481750488,1.684005856513977,-0.0666489377617836
1759864132297638100,8.80563818359375,9.658835411071777,1.694831132888794,-0.0694856271147728
1759864132307636700,8.81563671875,9.655352592468262,1.7142685651779175,-0.07638999819755554
1759864132317635600,8.825635498046875,9.649968147277832,1.7439143657684326,-0.08526815474033356
1759864132327634400,8.835634521484375,9.643571853637695,1.778470754623413,-0.09461714327335358
1759864132337633000,8.845633056640626,9.635452270507812,1.8214131593704224,-0.10436404496431351
1759864132347631600,8.855631591796875,9.626419067382812,1.86802339553833,-0.11366934329271317
1759864132357630700,8.865630615234375,9.617105484008789,1.9148154258728027,-0.12308160960674286
1759864132367629600,8.875629638671874,9.608261108398438,1.9579753875732422,-0.13424940407276154
1759864132377628400,8.88562841796875,9.600397109985352,1.995240569114685,-0.14753544330596924
1759864132387627000,8.895626953125,9.593765258789062,2.025754690170288,-0.1623964011669159
1759864132397625900,8.9056259765625,9.58868408203125,2.0484888553619385,-0.17670133709907532
1759864132407624700,8.915624755859374,9.58548355102539,2.062441825866699,-0.18766850233078003
1759864132417622500,8.92562255859375,9.584428787231445,2.066826343536377,-0.1932341754436493
1759864132427621400,8.935621337890625,9.585003852844238,2.06412672996521,-0.19355741143226624
1759864132437620200,8.9456201171875,9.586051940917969,2.0595479011535645,-0.1903933882713318
1759864132447618800,8.955618896484374,9.586800575256348,2.056363821029663,-0.18707096576690674
1759864132457617700,8.96561767578125,9.587575912475586,2.052644729614258,-0.18820545077323914
1759864132467616500,8.975616455078125,9.589722633361816,2.0419492721557617,-0.19507117569446564
1759864132477615000,8.985614990234374,9.594929695129395,2.0163352489471436,-0.20514708757400513
1759864132487614000,8.995614013671876,9.604242324829102,1.9704551696777344,-0.2149929255247116
1759864132497612500,9.005612548828125,9.616463661193848,1.9091925621032715,-0.2213403284549713
1759864132507611400,9.015611328125,9.628495216369629,1.84774649143219,-0.21975824236869812
1759864132517610200,9.0256103515625,9.637099266052246,1.8036344051361084,-0.20880839228630066
1759864132527608800,9.03560888671875,9.64069652557373,1.7862341403961182,-0.19162790477275848
1759864132537608400,9.0456083984375,9.639803886413574,1.7928237915039062,-0.17417459189891815
1759864132547607800,9.05560791015625,9.636261940002441,1.8131506443023682,-0.15908975899219513
1759864132557607200,9.065607177734375,9.631863594055176,1.8373709917068481,-0.14715959131717682
1759864132567606500,9.0756064453125,9.627732276916504,1.8595484495162964,-0.1386728584766388
1759864132577605400,9.08560546875,9.624072074890137,1.8789855241775513,-0.1304999142885208
1759864132587604200,9.095604248046875,9.620184898376465,1.8995200395584106,-0.1193588599562645
1759864132597602800,9.105602783203125,9.615194320678711,1.9254820346832275,-0.1045231819152832
1759864132607601700,9.1156015625,9.609214782714844,1.9560195207595825,-0.0858423039317131
1759864132617600300,9.125600341796876,9.602646827697754,1.9888299703598022,-0.06418364495038986
1759864132627599000,9.13559912109375,9.59584903717041,2.021984815597534,-0.04043028503656387
1759864132637598000,9.145597900390625,9.588966369628906,2.054703712463379,-0.017110124230384827
1759864132647596500,9.155596435546874,9.582268714904785,2.085782051086426,0.002956804120913148
1759864132657595400,9.165595458984376,9.576204299926758,2.113375425338745,0.018376564607024193
1759864132667594200,9.17559423828125,9.571317672729492,2.1352572441101074,0.030349034816026688
1759864132677592800,9.1855927734375,9.567769050598145,2.1509222984313965,0.041424188762903214
1759864132687591700,9.195591796875,9.565311431884766,2.1615707874298096,0.0529530793428421
1759864132697590300,9.20559033203125,9.563464164733887,2.169386863708496,0.06561645865440369
1759864132707589000,9.215589111328125,9.561833381652832,2.1760787963867188,0.08007482439279556
1759864132717588500,9.22558837890625,9.560169219970703,2.1827480792999268,0.09568645060062408
1759864132727587000,9.235587158203124,9.558448791503906,2.189624071121216,0.1094781756401062
1759864132737586000,9.2455859375,9.557074546813965,2.195089817047119,0.11954225599765778
1759864132747584500,9.25558447265625,9.556543350219727,2.19702410697937,0.1262269914150238
1759864132757583400,9.265583251953124,9.557190895080566,2.1938953399658203,0.1315566599369049
1759864132767582000,9.27558203125,9.558688163757324,2.187162160873413,0.1348823755979538
1759864132777580800,9.285580810546875,9.560392379760742,2.179570436477661,0.13696005940437317
1759864132787579400,9.295579345703125,9.56181812286377,2.173306941986084,0.13695648312568665
1759864132797578200,9.305578125,9.56297492980957,2.168362855911255,0.13450556993484497
1759864132807577000,9.3155771484375,9.56393814086914,2.1644787788391113,0.12843546271324158
1759864132817575700,9.32557568359375,9.565115928649902,2.159869432449341,0.11794029921293259
1759864132827574500,9.335574462890625,9.566359519958496,2.155029058456421,0.10489537566900253
1759864132837573400,9.345573486328124,9.566862106323242,2.153493881225586,0.08947371691465378
1759864132847572000,9.355572021484376,9.565706253051758,2.15922474861145,0.07339227944612503
1759864132857570800,9.36557080078125,9.561981201171875,2.176130533218384,0.05788162350654602
1759864132867569400,9.3755693359375,9.555388450622559,2.20524263381958,0.04278802499175072
1759864132877568000,9.385568115234374,9.546091079711914,2.245393753051758,0.02684621326625347
1759864132887566600,9.395566650390625,9.53512191772461,2.2916629314422607,0.00994622427970171
1759864132897565400,9.4055654296875,9.523772239685059,2.3383901119232178,-0.00787336379289627
1759864132907564300,9.415564208984375,9.513177871704102,2.3810105323791504,-0.02498232014477253
1759864132917563000,9.42556298828125,9.503973960876465,2.41729474067688,-0.03926774114370346
1759864132927561700,9.435561767578125,9.496033668518066,2.4480948448181152,-0.05052454024553299
1759864132937560600,9.445560546875,9.48863697052002,2.4764058589935303,-0.05958031862974167
1759864132947559200,9.45555908203125,9.4808931350708,2.5057613849639893,-0.06484459340572357
1759864132957558000,9.46555810546875,9.471819877624512,2.5398097038269043,-0.06614537537097931
1759864132977555500,9.485555419921875,9.449612617492676,2.6212477684020996,-0.06526822596788406
1759864132987554300,9.49555419921875,9.438789367675781,2.659897804260254,-0.06766834855079651
1759864132997553200,9.50555322265625,9.430238723754883,2.689875602722168,-0.07445340603590012
1759864133007552000,9.515552001953125,9.424474716186523,2.709662914276123,-0.0858689695596695
1759864133017550800,9.52555078125,9.420754432678223,2.7220890522003174,-0.09996617585420609
1759864133027549700,9.5355498046875,9.417913436889648,2.731334924697876,-0.11442447453737259
1759864133037548500,9.545548583984376,9.415033340454102,2.740708112716675,-0.12668964266777039
1759864133047547600,9.555547607421875,9.411784172058105,2.7514400482177734,-0.1351822316646576
1759864133057546500,9.56554638671875,9.408713340759277,2.7616825103759766,-0.14006079733371735
1759864133067545300,9.57554541015625,9.406539916992188,2.7689404487609863,-0.14262984693050385
1759864133077544200,9.585544189453126,9.406082153320312,2.7703967094421387,-0.14451982080936432
1759864133087543000,9.59554296875,9.40772533416748,2.764700412750244,-0.14664360880851746
1759864133097542000,9.6055419921875,9.411355018615723,2.7520923614501953,-0.15083053708076477
1759864133107540700,9.615540771484374,9.416568756103516,2.733891725540161,-0.15642814338207245
1759864133117539600,9.62553955078125,9.422426223754883,2.713343858718872,-0.16136011481285095
1759864133127538400,9.635538330078125,9.428167343139648,2.6930251121520996,-0.16629552841186523
1759864133137537300,9.645537353515625,9.433709144592285,2.673278570175171,-0.17058394849300385
1759864133147536100,9.6555361328125,9.43944263458252,2.652777910232544,-0.1734066754579544
1759864133157535000,9.665534912109376,9.44563102722168,2.630568504333496,-0.17480266094207764
1759864133167533800,9.675533935546875,9.452117919921875,2.607135772705078,-0.17515870928764343
1759864133177533200,9.685533203125,9.459074020385742,2.581923246383667,-0.17313070595264435
1759864133207527400,9.71552734375,9.47281551361084,2.5316662788391113,-0.1637670397758484
1759864133217526300,9.7255263671875,9.471850395202637,2.5350866317749023,-0.1665888875722885
1759864133227525000,9.735525146484376,9.468406677246094,2.547558069229126,-0.1720394790172577
1759864133237524000,9.74552392578125,9.463526725769043,2.565295934677124,-0.17692337930202484
1759864133247522600,9.7555224609375,9.458561897277832,2.583401679992676,-0.178980752825737
1759864133257521400,9.765521484375,9.454473495483398,2.598322868347168,-0.17894838750362396
1759864133267520300,9.775520263671876,9.451410293579102,2.6095097064971924,-0.17797186970710754
1759864133277519000,9.78551904296875,9.44909381866455,2.618011951446533,-0.1761315017938614
1759864133287518000,9.79551806640625,9.44721508026123,2.6247782707214355,-0.1761450171470642
1759864133297516800,9.805516845703124,9.445886611938477,2.629345178604126,-0.17930574715137482
1759864133307515600,9.815515625,9.445245742797852,2.63127064704895,-0.18476343154907227
1759864133317514200,9.82551416015625,9.44509220123291,2.6315066814422607,-0.18918365240097046
1759864133327513000,9.83551318359375,9.445524215698242,2.629870653152466,-0.19031119346618652
1759864133337511700,9.84551171875,9.446842193603516,2.6254045963287354,-0.18655367195606232
1759864133347510500,9.855510498046876,9.449026107788086,2.618246078491211,-0.17628340423107147
1759864133357509000,9.865509033203125,9.452032089233398,2.608457565307617,-0.15946298837661743
1759864133367508000,9.875508056640625,9.455622673034668,2.5965824127197266,-0.13899850845336914
1759864133377506600,9.885506591796876,9.459514617919922,2.5834360122680664,-0.11751440167427063
1759864133387505000,9.8955048828125,9.462953567504883,2.571688175201416,-0.09651735424995422
1759864133397503500,9.90550341796875,9.465465545654297,2.5630598068237305,-0.07783485949039459
1759864133407502300,9.91550244140625,9.467002868652344,2.5577967166900635,-0.06248685345053673
1759864133417501000,9.9255009765625,9.468082427978516,2.5540771484375,-0.049821723252534866
1759864133427499000,9.9354990234375,9.469548225402832,2.5488433837890625,-0.03775361180305481
1759864133437497000,9.9454970703125,9.471933364868164,2.5401268005371094,-0.024914368987083435
1759864133447496000,9.955495849609376,9.475131034851074,2.5282657146453857,-0.011801935732364655
1759864133457494500,9.96549462890625,9.478928565979004,2.5140199661254883,0.001999868545681238
1759864133467493400,9.975493408203125,9.482535362243652,2.500321626663208,0.016922419890761375
1759864133477492000,9.985491943359374,9.483842849731445,2.4952073097229004,0.03224368765950203
1759864133487491600,9.99549169921875,9.480462074279785,2.507810354232788,0.04568907991051674
1759864133497491000,10.005490966796875,9.471223831176758,2.542276382446289,0.055808983743190765
1759864133507490600,10.015490478515625,9.456884384155273,2.5949478149414062,0.063008613884449
1759864133517489200,10.0254892578125,9.439784049987793,2.656386137008667,0.06682868301868439
1759864133527488000,10.035488037109374,9.422822952270508,2.7159054279327393,0.06816855072975159
1759864133537486800,10.04548681640625,9.408658027648926,2.7645726203918457,0.06833331286907196
1759864133547485700,10.055485595703125,9.398914337158203,2.797520399093628,0.0682518482208252
1759864133557484500,10.065484619140625,9.393400192260742,2.8159830570220947,0.06814035028219223
1759864133567483400,10.0754833984375,9.390331268310547,2.826190948486328,0.06856895238161087
1759864133577482000,10.08548193359375,9.388200759887695,2.833240509033203,0.06927921622991562
1759864133587480800,10.095480712890625,9.386116981506348,2.8401217460632324,0.06996960937976837
1759864133597479400,10.1054794921875,9.384245872497559,2.84628963470459,0.07031074911355972
1759864133607478300,10.115478271484376,9.383246421813965,2.8496155738830566,0.06900602579116821
1759864133617476900,10.125476806640625,9.383366584777832,2.8492722511291504,0.06668050587177277
1759864133627475700,10.135475830078125,9.383874893188477,2.8476295471191406,0.06539002805948257
1759864133637474600,10.145474609375,9.383366584777832,2.8492724895477295,0.06684504449367523
1759864133647473200,10.15547314453125,9.381453514099121,2.8554248809814453,0.07253193110227585
1759864133657472000,10.165471923828125,9.378562927246094,2.864652633666992,0.08183029294013977
1759864133667470800,10.175470947265625,9.375831604003906,2.873223304748535,0.09351678192615509
1759864133677469400,10.185469482421874,9.374626159667969,2.876690626144409,0.10679639130830765
1759864133687468800,10.19546875,9.37630844116211,2.8707056045532227,0.11948569864034653
1759864133697467600,10.205467529296875,9.381388664245605,2.8536276817321777,0.12936127185821533
1759864133707466200,10.21546630859375,9.389720916748047,2.825866937637329,0.13413353264331818
1759864133717465000,10.225465087890624,9.400162696838379,2.79097318649292,0.1333572119474411
1759864133727464400,10.23546435546875,9.411083221435547,2.754263162612915,0.12625351548194885
1759864133737463800,10.2454638671875,9.421178817749023,2.720097303390503,0.11327289044857025
1759864133747462700,10.255462646484375,9.429901123046875,2.6903293132781982,0.09729739278554916
1759864133757461200,10.265461181640624,9.437051773071289,2.665660858154297,0.08171659708023071
1759864133767460000,10.275460205078126,9.442488670349121,2.6467058658599854,0.06880947947502136
1759864133777458700,10.285458740234375,9.446653366088867,2.632032632827759,0.05934007838368416
1759864133787457500,10.29545751953125,9.45046615600586,2.618452548980713,0.052684273570775986
1759864133797456400,10.305456298828124,9.454614639282227,2.603515148162842,0.04840951785445213
1759864133807455000,10.315455078125,9.459233283996582,2.586716890335083,0.046661797910928726
1759864133817453600,10.32545361328125,9.464085578918457,2.5688834190368652,0.0479634553194046
1759864133827452400,10.335452392578125,9.468667030334473,2.551877021789551,0.05153437331318855
1759864133837451000,10.345450927734374,9.472777366638184,2.53647780418396,0.05619125813245773
1759864133847449900,10.355449951171876,9.47673225402832,2.521545171737671,0.06108436360955238
1759864133857448700,10.36544873046875,9.480633735656738,2.5067248344421387,0.06557802110910416
1759864133867447300,10.375447265625,9.484440803527832,2.4921810626983643,0.06916867196559906
1759864133877446100,10.385446044921874,9.488051414489746,2.478323221206665,0.07196246087551117
1759864133887445000,10.395445068359376,9.491473197937012,2.465092420578003,0.0750359520316124
1759864133897443600,10.405443603515625,9.494519233703613,2.453185796737671,0.07977160066366196
1759864133907442400,10.4154423828125,9.496585845947266,2.4449663162231445,0.08591733872890472
1759864133917441300,10.425441162109376,9.497182846069336,2.442394733428955,0.0927223414182663
1759864133927440000,10.43543994140625,9.496147155761719,2.4461612701416016,0.09921718388795853
1759864133937438700,10.445438720703125,9.493437767028809,2.4563632011413574,0.10627389699220657
1759864133947437300,10.455437255859374,9.489395141601562,2.4715816974639893,0.11419643461704254
1759864133957436200,10.465436279296876,9.484368324279785,2.4904286861419678,0.12204663455486298
1759864133967435000,10.47543505859375,9.47854995727539,2.5121448040008545,0.12877769768238068
1759864133977433600,10.48543359375,9.472368240356445,2.5351409912109375,0.13296565413475037
1759864133987432400,10.495432373046874,9.466340065002441,2.5574748516082764,0.13457243144512177
1759864133997431300,10.505431396484376,9.460926055908203,2.5774288177490234,0.13453727960586548
1759864134007430000,10.515429931640625,9.455803871154785,2.596123695373535,0.13525734841823578
1759864134017428700,10.5254287109375,9.450461387634277,2.615419387817383,0.13692329823970795
1759864134027427600,10.535427490234374,9.443340301513672,2.640801191329956,0.14090310037136078
1759864134037426400,10.545426513671876,9.432690620422363,2.678314685821533,0.14614084362983704
1759864134047425300,10.55542529296875,9.41824722290039,2.7284576892852783,0.1500398963689804
1759864134057424100,10.565424072265625,9.400911331176758,2.7874412536621094,0.153028205037117
1759864134067423000,10.575423095703124,9.382198333740234,2.8496053218841553,0.15646488964557648
1759864134077422000,10.585422119140626,9.364163398742676,2.908120632171631,0.16014190018177032
1759864134097420000,10.605419921875,9.339117050170898,2.987637758255005,0.15893924236297607
1759864134107419100,10.615419189453124,9.335631370544434,2.998737335205078,0.154691681265831
1759864134117418200,10.625418212890626,9.338600158691406,2.9895472526550293,0.15341362357139587
1759864134127417300,10.635417236328125,9.34715461730957,2.9625043869018555,0.15700243413448334
1759864134137416400,10.64541650390625,9.360154151916504,2.9206957817077637,0.1656380146741867
1759864134147415600,10.65541552734375,9.375970840454102,2.868727684020996,0.17872685194015503
1759864134157414700,10.66541455078125,9.39197826385498,2.8148534297943115,0.19421769678592682
1759864134167413800,10.675413818359376,9.405220985412598,2.7693169116973877,0.20756752789020538
1759864134177412900,10.685412841796875,9.413718223571777,2.739701509475708,0.21523447334766388
1759864134187412000,10.695411865234375,9.417133331298828,2.7279350757598877,0.2152881771326065
1759864134197410300,10.705410400390624,9.416528701782227,2.7305049896240234,0.20905330777168274
1759864134207408400,10.715408447265625,9.41368579864502,2.7410550117492676,0.198807954788208
1759864134217406700,10.72540673828125,9.410168647766113,2.7539784908294678,0.18624036014080048
1759864134227404800,10.73540478515625,9.40731430053711,2.7645041942596436,0.17412541806697845
1759864134237404200,10.745404052734376,9.40594482421875,2.769679546356201,0.16569222509860992
1759864134247403300,10.7554033203125,9.40607738494873,2.769334077835083,0.16395752131938934
1759864134257401900,10.76540185546875,9.407390594482422,2.7645010948181152,0.17004187405109406
1759864134267401000,10.77540087890625,9.409381866455078,2.7568600177764893,0.18339352309703827
1759864134277400000,10.785400146484376,9.4116849899292,2.7477102279663086,0.20162571966648102
1759864134287399200,10.795399169921875,9.414260864257812,2.737384557723999,0.22087256610393524
1759864134297398000,10.80539794921875,9.417304039001465,2.725438356399536,0.2382224053144455
1759864134307397000,10.815397216796875,9.420507431030273,2.7129743099212646,0.25336307287216187
1759864134317396200,10.825396240234374,9.423203468322754,2.702279806137085,0.26699456572532654
1759864134327395300,10.835395263671876,9.424872398376465,2.695117950439453,0.28019145131111145
1759864134337394400,10.84539453125,9.425224304199219,2.6924705505371094,0.2934843599796295
1759864134347393300,10.855393310546875,9.424447059631348,2.6936864852905273,0.30697181820869446
1759864134357392100,10.86539208984375,9.423600196838379,2.6950533390045166,0.320658415555954
1759864134367391000,10.875390869140626,9.42357063293457,2.6936299800872803,0.33323022723197937
1759864134377389800,10.885389892578125,9.425325393676758,2.686340570449829,0.3423544764518738
1759864134387388200,10.89538818359375,9.429149627685547,2.6722006797790527,0.34765544533729553
1759864134397386800,10.90538671875,9.434744834899902,2.652111768722534,0.3496682941913605
1759864134407385600,10.915385498046875,9.441317558288574,2.628485679626465,0.35066404938697815
1759864134417384400,10.925384521484375,9.447341918945312,2.6064884662628174,0.3525940477848053
1759864134427383000,10.935383056640624,9.452128410339355,2.588555335998535,0.356411874294281
1759864134437382000,10.9453818359375,9.455610275268555,2.5751876831054688,0.36085569858551025
1759864134447380500,10.95538037109375,9.458288192749023,2.5650522708892822,0.3628692328929901
1759864134457379300,10.96537939453125,9.461315155029297,2.5543017387390137,0.3597762882709503
1759864134467378000,10.9753779296875,9.465790748596191,2.538853883743286,0.35128581523895264
1759864134477376800,10.985376708984376,9.471907615661621,2.5178065299987793,0.33766302466392517
1759864134487375600,10.995375732421875,9.479175567626953,2.4925036430358887,0.32098764181137085
1759864134497375000,11.005375,9.486811637878418,2.4652795791625977,0.30525654554367065
1759864134507374600,11.01537451171875,9.49415397644043,2.4384500980377197,0.29218590259552
1759864134517374200,11.025374267578124,9.501123428344727,2.412461757659912,0.28117287158966064
1759864134527373800,11.035373779296876,9.507774353027344,2.3871233463287354,0.2724679410457611
1759864134537372400,11.045372314453125,9.51404094696045,2.3627822399139404,0.26582902669906616
1759864134547371000,11.05537109375,9.518961906433105,2.343597650527954,0.25942039489746094
1759864134557370600,11.06537060546875,9.521111488342285,2.3358402252197266,0.2503555417060852
1759864134567369200,11.075369140625,9.519756317138672,2.3425357341766357,0.23905988037586212
1759864134577368000,11.0853681640625,9.515838623046875,2.3598010540008545,0.22479777038097382
1759864134587366700,11.09536669921875,9.510934829711914,2.3808956146240234,0.20937040448188782
1759864134597365500,11.105365478515624,9.506009101867676,2.401583671569824,0.19636480510234833
1759864134607364400,11.1153642578125,9.500770568847656,2.422935962677002,0.18739210069179535
1759864134617363000,11.125363037109375,9.493708610534668,2.4505434036254883,0.1863357126712799
1759864134627361800,11.13536181640625,9.482892036437988,2.4913978576660156,0.19511830806732178
1759864134637360600,11.145360595703124,9.467708587646484,2.547161102294922,0.21174459159374237
1759864134647359200,11.155359130859376,9.449606895446777,2.6116626262664795,0.2334667444229126
1759864134657358000,11.165358154296875,9.431260108947754,2.6750783920288086,0.25623100996017456
1759864134667357000,11.17535693359375,9.415247917175293,2.728935956954956,0.27640220522880554
1759864134677355500,11.18535546875,9.40333080291748,2.7678182125091553,0.29480573534965515
1759864134687355100,11.195355224609376,9.396523475646973,2.7889363765716553,0.31233182549476624
1759864134697353700,11.205353759765625,9.394868850708008,2.792316436767578,0.331321120262146
1759864134707352600,11.2153525390625,9.39704704284668,2.782226324081421,0.3536989390850067
1759864134717351200,11.22535107421875,9.40078353881836,2.766223907470703,0.379015177488327
1759864134727350000,11.23535009765625,9.404446601867676,2.7500317096710205,0.4050622880458832
1759864134737348900,11.245348876953125,9.407520294189453,2.736013174057007,0.4279868006706238
1759864134747347500,11.255347412109375,9.409905433654785,2.7252564430236816,0.44387680292129517
1759864134757346300,11.26534619140625,9.411465644836426,2.7184603214263916,0.4523964822292328
1759864134767345000,11.275344970703125,9.411977767944336,2.716052293777466,0.4561939239501953
1759864134777343700,11.28534375,9.411585807800293,2.717114210128784,0.4579421579837799
1759864134787342600,11.295342529296875,9.410653114318848,2.719965696334839,0.46017152070999146
1759864134797341200,11.305341064453126,9.409899711608887,2.7217721939086914,0.4648912250995636
1759864134807339800,11.31533984375,9.409964561462402,2.720280647277832,0.47224846482276917
1759864134817338600,11.325338623046875,9.410909652709961,2.715630292892456,0.4801195561885834
1759864134827337500,11.33533740234375,9.412713050842285,2.7082431316375732,0.48644891381263733
1759864134837336000,11.345336181640626,9.414754867553711,2.700345039367676,0.49081557989120483
1759864134847334700,11.355334716796875,9.416607856750488,2.693480968475342,0.49298563599586487
1759864134857333500,11.36533349609375,9.418036460876465,2.688530921936035,0.49271002411842346
1759864134867332000,11.37533203125,9.419356346130371,2.6842336654663086,0.49089953303337097
1759864134877331000,11.3853310546875,9.42084789276123,2.679882049560547,0.4860384464263916
1759864134887329800,11.395329833984375,9.422986030578613,2.673637628555298,0.4789280295372009
1759864134897328400,11.405328369140625,9.42607593536377,2.6643805503845215,0.4696347713470459
1759864134907327200,11.4153271484375,9.430316925048828,2.6512303352355957,0.45878246426582336
1759864134917326000,11.425326171875,9.435649871826172,2.6343607902526855,0.4461152255535126
1759864134927324700,11.43532470703125,9.441811561584473,2.614804983139038,0.4305478632450104
1759864134937323500,11.445323486328125,9.44821834564209,2.5943429470062256,0.4134369492530823
1759864134947322400,11.455322265625,9.454263687133789,2.574984073638916,0.39587825536727905
1759864134957321000,11.465321044921875,9.459477424621582,2.558309555053711,0.3791062831878662
1759864134967319800,11.47531982421875,9.463191032409668,2.5467302799224854,0.3640836477279663
1759864134977318400,11.485318359375,9.465017318725586,2.541764259338379,0.3510802090167999
1759864134987317200,11.495317138671876,9.464981079101562,2.5433156490325928,0.3406699597835541
1759864134997316000,11.505316162109375,9.463075637817383,2.5514605045318604,0.33260634541511536
1759864135007314700,11.515314697265625,9.459444999694824,2.5657238960266113,0.3261035978794098
1759864135017313500,11.5253134765625,9.454697608947754,2.583918809890747,0.32005971670150757
1759864135037311000,11.54531103515625,9.444127082824707,2.6243860721588135,0.3023889660835266
1759864135047309800,11.555309814453125,9.440268516540527,2.639899730682373,0.28747525811195374
1759864135057308400,11.565308349609374,9.437911987304688,2.6505253314971924,0.266280859708786
1759864135067307300,11.575307373046876,9.436656951904297,2.6574931144714355,0.24003158509731293
1759864135077306000,11.58530615234375,9.436308860778809,2.6612884998321533,0.20975136756896973
1759864135087304700,11.5953046875,9.436020851135254,2.664494037628174,0.17989853024482727
1759864135097303600,11.605303466796874,9.434259414672852,2.6723952293395996,0.15311039984226227
1759864135107302400,11.615302490234376,9.429896354675293,2.6888890266418457,0.13153642416000366
1759864135117301000,11.625301025390625,9.424151420593262,2.7097253799438477,0.11459778249263763
1759864135127299800,11.6352998046875,9.419548988342285,2.7262253761291504,0.10079561173915863
1759864135137298700,11.645298583984374,9.418192863464355,2.731349468231201,0.0880589559674263
1759864135147297500,11.655297607421875,9.421029090881348,2.7219886779785156,0.07316876947879791
1759864135157296600,11.665296630859375,9.427574157714844,2.6996607780456543,0.05531571805477142
1759864135167295500,11.67529541015625,9.435833930969238,2.6709675788879395,0.03673245385289192
1759864135177294600,11.685294677734374,9.442582130432129,2.6471948623657227,0.01945442333817482
1759864135187293400,11.69529345703125,9.444466590881348,2.640530586242676,0.005135390441864729
1759864135197291800,11.705291748046875,9.440072059631348,2.6561973094940186,-0.004235811065882444
1759864135207291000,11.715290771484375,9.430461883544922,2.6901028156280518,-0.010816358961164951
1759864135217289200,11.725289306640626,9.418559074401855,2.7314651012420654,-0.01505333837121725
1759864135227287600,11.73528759765625,9.406826972961426,2.771577835083008,-0.018323592841625214
1759864135237286700,11.74528662109375,9.396721839904785,2.805610179901123,-0.0233098566532135
1759864135247285800,11.75528564453125,9.388396263122559,2.8332743644714355,-0.030587738379836082
1759864135257284000,11.7652841796875,9.380719184875488,2.8584930896759033,-0.03868132084608078
1759864135267282400,11.775282470703125,9.3729829788208,2.8836748600006104,-0.04436638206243515
1759864135277281500,11.785281494140625,9.365497589111328,2.907883405685425,-0.04520166292786598
1759864135287280600,11.79528076171875,9.359448432922363,2.927363634109497,-0.040412966161966324
1759864135297279700,11.80527978515625,9.355731964111328,2.9393351078033447,-0.031045565381646156
1759864135307278600,11.815278564453125,9.354241371154785,2.9441826343536377,-0.01819339022040367
1759864135317277700,11.825277587890625,9.353861808776855,2.9454448223114014,-0.004459317773580551
1759864135327276800,11.83527685546875,9.353527069091797,2.94649076461792,0.00995250791311264
1759864135337275600,11.845275634765626,9.352643013000488,2.9492127895355225,0.024042116478085518
1759864135347274800,11.855274658203125,9.351187705993652,2.9536938667297363,0.03686375170946121
1759864135357273900,11.86527392578125,9.349471092224121,2.958950996398926,0.04859437420964241
1759864135367273000,11.87527294921875,9.348126411437988,2.9629900455474854,0.06003522127866745
1759864135377272000,11.88527197265625,9.347655296325684,2.9642205238342285,0.07160452008247375
1759864135387271000,11.89527099609375,9.34870433807373,2.960658073425293,0.08134835213422775
1759864135397270000,11.90527001953125,9.35161304473877,2.95127534866333,0.08773937076330185
1759864135407268400,11.915268310546875,9.356344223022461,2.936142683029175,0.0907972902059555
1759864135417267500,11.925267333984374,9.36258602142334,2.916158676147461,0.09155600517988205
1759864135427266600,11.9352666015625,9.369475364685059,2.893932580947876,0.0919831395149231
1759864135437265400,11.945265380859375,9.376769065856934,2.8702030181884766,0.09225436300039291
1759864135447264300,11.95526416015625,9.384272575378418,2.8456063270568848,0.09128288179636002
1759864135457263000,11.96526318359375,9.391472816467285,2.821829080581665,0.08886267244815826
1759864135467262000,11.975261962890626,9.397828102111816,2.8007404804229736,0.08393851667642593
1759864135477260800,11.9852607421875,9.402681350708008,2.7846286296844482,0.07619184255599976
1759864135487259600,11.995259765625,9.40561294555664,2.774930953979492,0.0675320103764534
1759864135497259000,12.005259033203124,9.406128883361816,2.7733705043792725,0.059437546879053116
1759864135507257900,12.0152578125,9.403376579284668,2.7828292846679688,0.05239858850836754
1759864135517257200,12.02525732421875,9.39675521850586,2.8051908016204834,0.04783142730593681
1759864135527256600,12.035256591796875,9.38708782196045,2.8374195098876953,0.04478110000491142
1759864135537255400,12.04525537109375,9.376036643981934,2.873751640319824,0.04313260316848755
1759864135547254000,12.05525390625,9.365187644958496,2.9088940620422363,0.04424436390399933
1759864135557253400,12.06525341796875,9.355974197387695,2.9383368492126465,0.04807078838348389
1759864135567253000,12.0752529296875,9.349115371704102,2.959977149963379,0.05426584556698799
1759864135577251600,12.08525146484375,9.344560623168945,2.9741461277008057,0.0634014829993248
1759864135587250400,12.09525048828125,9.341778755187988,2.982616424560547,0.07448168098926544
1759864135597249000,12.1052490234375,9.34055233001709,2.986090898513794,0.08790756016969681
1759864135607248000,12.115247802734375,9.34044075012207,2.98593807220459,0.10351400822401047
1759864135617246500,12.12524658203125,9.340696334838867,2.9844977855682373,0.12056787312030792
1759864135627245300,12.135245361328124,9.340866088867188,2.9832324981689453,0.13752251863479614
1759864135637244200,12.145244140625,9.341071128845215,2.981858968734741,0.1525384485721588
1759864135647242800,12.15524267578125,9.342164039611816,2.9778239727020264,0.16401012241840363
1759864135657241600,12.16524169921875,9.345335960388184,2.9674112796783447,0.17189839482307434
1759864135667240400,12.175240478515626,9.351814270019531,2.946667194366455,0.17631883919239044
1759864135677239000,12.185239013671875,9.3619384765625,2.91420578956604,0.17857597768306732
1759864135687238000,12.19523779296875,9.374794006347656,2.87246036529541,0.18049436807632446
1759864135697236700,12.20523681640625,9.387667655944824,2.829799175262451,0.18518954515457153
1759864135707236000,12.215236083984376,9.396952629089355,2.798149347305298,0.19497159123420715
1759864135717235000,12.22523486328125,9.403417587280273,2.7754435539245605,0.2074519395828247
1759864135727233500,12.235233642578125,9.403645515441895,2.773432493209839,0.22341647744178772
1759864135737232400,12.245232421875,9.39911937713623,2.787473201751709,0.23860016465187073
1759864135747231000,12.25523095703125,9.392461776733398,2.8087568283081055,0.25087693333625793
1759864135777227300,12.285227294921874,9.371940612792969,2.8763985633850098,0.251867413520813
1759864135787226000,12.29522607421875,9.365771293640137,2.8970532417297363,0.2445201277732849
1759864135797225000,12.305224853515625,9.359960556030273,2.916130304336548,0.24018268287181854
1759864135807223600,12.3152236328125,9.354511260986328,2.933441162109375,0.24168314039707184
1759864135817222400,12.325222412109374,9.349672317504883,2.948184013366699,0.24943770468235016
1759864135827221200,12.33522119140625,9.345846176147461,2.959259271621704,0.2613774538040161
1759864135837219800,12.3452197265625,9.343330383300781,2.965909719467163,0.275562047958374
1759864135847218700,12.35521875,9.342501640319824,2.9671473503112793,0.28994742035865784
1759864135857217300,12.36521728515625,9.343768119812012,2.9618284702301025,0.3032146096229553
1759864135867216100,12.375216064453125,9.347475051879883,2.9488725662231445,0.31500089168548584
1759864135877214700,12.385214599609375,9.353411674499512,2.9287631511688232,0.3262196183204651
1759864135887213600,12.395213623046875,9.36080551147461,2.9035542011260986,0.3392040431499481
1759864135897212400,12.40521240234375,9.36892318725586,2.8753271102905273,0.3551562428474426
1759864135907211000,12.4152109375,9.376861572265625,2.846970319747925,0.37364357709884644
1759864135917209900,12.4252099609375,9.383743286132812,2.8215560913085938,0.3931449055671692
1759864135927208400,12.43520849609375,9.3890380859375,2.801344633102417,0.4108717739582062
1759864135937207300,12.445207275390626,9.392963409423828,2.7861528396606445,0.42422181367874146
1759864135947206000,12.455205810546875,9.396028518676758,2.774460554122925,0.4328855872154236
1759864135957204700,12.465204833984375,9.398862838745117,2.76408052444458,0.4377419352531433
1759864135967203300,12.475203369140624,9.402122497558594,2.7526967525482178,0.43946123123168945
1759864135977202000,12.485201904296876,9.40573787689209,2.7402660846710205,0.43978917598724365
1759864135987200800,12.49520068359375,9.409314155578613,2.7279982566833496,0.4395597279071808
1759864135997199600,12.50519970703125,9.412948608398438,2.7157886028289795,0.4373379647731781
1759864136007198200,12.5151982421875,9.416967391967773,2.7026476860046387,0.432192862033844
1759864136017197000,12.525197021484376,9.42165470123291,2.6873223781585693,0.42556285858154297
1759864136027196000,12.53519580078125,9.426815032958984,2.6702520847320557,0.41867631673812866
1759864136037194500,12.545194580078125,9.432252883911133,2.652043104171753,0.4118797779083252
1759864136047193300,12.555193359375,9.437450408935547,2.634629011154175,0.4045107066631317
1759864136057192000,12.56519189453125,9.441882133483887,2.6200191974639893,0.3958968222141266
1759864136067190800,12.575190673828125,9.444947242736816,2.6103129386901855,0.3868148922920227
1759864136077189600,12.585189697265625,9.446102142333984,2.607243061065674,0.3792336583137512
1759864136087188200,12.595188232421876,9.445022583007812,2.611928701400757,0.3738221526145935
1759864136097187000,12.60518701171875,9.441451072692871,2.6254899501800537,0.36903518438339233
1759864136107186000,12.61518603515625,9.435380935668945,2.6480274200439453,0.36319422721862793
1759864136117184500,12.6251845703125,9.427461624145508,2.6771461963653564,0.3552934527397156
1759864136127183400,12.635183349609376,9.418336868286133,2.7104132175445557,0.3449303209781647
1759864136137182000,12.645181884765625,9.408645629882812,2.745440721511841,0.33212679624557495
1759864136147180800,12.655180908203125,9.39908504486084,2.779775381088257,0.31691935658454895
1759864136157179600,12.6651796875,9.390406608581543,2.810939311981201,0.29877200722694397
1759864136167178200,12.67517822265625,9.383219718933105,2.836984157562256,0.27764132618904114
1759864136177177000,12.685177001953125,9.378201484680176,2.855694055557251,0.2543906569480896
1759864136187176000,12.695176025390625,9.37549877166748,2.866506576538086,0.2313675731420517
1759864136197173800,12.705173828125,9.375436782836914,2.8683061599731445,0.2106577455997467
1759864136207171800,12.715171875,9.379148483276367,2.8573391437530518,0.19380788505077362
1759864136227168000,12.73516796875,9.402016639709473,2.7829461097717285,0.16635720431804657
1759864136237166000,12.745166015625,9.41906452178955,2.725409984588623,0.15408019721508026
1759864136247166000,12.755166015625,9.435379028320312,2.669090747833252,0.14119309186935425
1759864136257164800,12.765164794921875,9.446883201599121,2.628977060317993,0.12355031818151474
1759864136267163000,12.775162841796876,9.451091766357422,2.6149024963378906,0.09757489711046219
1759864136277162000,12.785161865234375,9.447856903076172,2.627559185028076,0.06562463939189911
1759864136287160800,12.795160888671875,9.439169883728027,2.659212827682495,0.03211319446563721
1759864136297159700,12.80515966796875,9.427755355834961,2.699592113494873,0.0013276684330776334
1759864136307158500,12.815158447265626,9.415593147277832,2.741607666015625,-0.023802755400538445
1759864136317157400,12.825157470703125,9.404138565063477,2.7804172039031982,-0.04272036626935005
1759864136327156200,12.83515625,9.394181251525879,2.8136162757873535,-0.05752572417259216
1759864136337155000,12.845155029296874,9.385854721069336,2.840968132019043,-0.07084040343761444
1759864136347154000,12.85515380859375,9.378947257995605,2.8632946014404297,-0.08520020544528961
1759864136357152800,12.86515283203125,9.373289108276367,2.881326675415039,-0.09890460968017578
1759864136367151600,12.875151611328125,9.369001388549805,2.894850730895996,-0.10970205068588257
1759864136377150500,12.885150390625,9.365838050842285,2.904855728149414,-0.11519012600183487
1759864136387149300,12.8951494140625,9.363454818725586,2.9125967025756836,-0.11348434537649155
1759864136397148200,12.905148193359375,9.36214542388916,2.917125701904297,-0.10472235828638077
1759864136407147000,12.91514697265625,9.362278938293457,2.9171667098999023,-0.09078998863697052
1759864136417145900,12.925145751953124,9.364057540893555,2.9119114875793457,-0.07465864717960358
1759864136427144700,12.935144775390626,9.367266654968262,2.901921510696411,-0.05958601459860802
1759864136437143600,12.9451435546875,9.371675491333008,2.88787841796875,-0.04716799408197403
1759864136447142400,12.955142333984375,9.376970291137695,2.8707869052886963,-0.037243980914354324
1759864136457141200,12.965141357421874,9.382582664489746,2.852482318878174,-0.02952478639781475
1759864136467140000,12.97514013671875,9.387808799743652,2.8352935314178467,-0.022638240829110146
1759864136477139000,12.985138916015625,9.392399787902832,2.820098638534546,-0.015951311215758324
1759864136487137800,12.9951376953125,9.396685600280762,2.8058176040649414,-0.009179623797535896
1759864136497137400,13.005137451171874,9.401082038879395,2.791062831878662,-0.0021086628548800945
1759864136507137000,13.015136962890624,9.40624713897705,2.773601531982422,0.004041384439915419
1759864136517136600,13.02513671875,9.413023948669434,2.750509262084961,0.007116261869668961
1759864136527136300,13.03513623046875,9.42214584350586,2.719099998474121,0.006377134006470442
1759864136537135600,13.045135498046875,9.433309555053711,2.6801187992095947,0.0032215924002230167
1759864136547133400,13.055133544921874,9.445494651794434,2.636854648590088,0.0019048837712034583
1759864136557132000,13.065132080078126,9.457571983337402,2.5932016372680664,0.003653554245829582
1759864136567131600,13.075131591796875,9.469283103942871,2.550095558166504,0.008130553178489208
1759864136577130200,13.085130126953125,9.479655265808105,2.511234760284424,0.01480433251708746
1759864136587128800,13.09512890625,9.487848281860352,2.4800503253936768,0.021540874615311623
1759864136597127700,13.105127685546876,9.493375778198242,2.458756685256958,0.026534371078014374
1759864136607126500,13.11512646484375,9.496057510375977,2.4483487606048584,0.029186785221099854
1759864136617125000,13.125125,9.495936393737793,2.448793888092041,0.031125791370868683
1759864136627124000,13.1351240234375,9.493300437927246,2.4589762687683105,0.03270714357495308
1759864136637122600,13.14512255859375,9.488607406616211,2.4769983291625977,0.034341391175985336
1759864136647121400,13.155121337890625,9.48243236541748,2.5005087852478027,0.03621149808168411
1759864136657120300,13.165120361328125,9.475133895874023,2.5280072689056396,0.0373210646212101
1759864136667118800,13.175118896484374,9.467107772827148,2.5578911304473877,0.03788366913795471
1759864136677117700,13.18511767578125,9.458722114562988,2.588705062866211,0.039382454007864
1759864136687116500,13.195116455078125,9.45005989074707,2.620094060897827,0.04291903227567673
1759864136697115100,13.205115234375,9.44088077545166,2.652909994125366,0.047169238328933716
1759864136707114000,13.215114013671876,9.43006706237793,2.691042900085449,0.04996391013264656
1759864136717112600,13.225112548828125,9.41627311706543,2.7388968467712402,0.05127236247062683
1759864136727111400,13.235111328125,9.399145126342773,2.7970898151397705,0.05235723406076431
1759864136737110300,13.2451103515625,9.379680633544922,2.8616888523101807,0.051962096244096756
1759864136747108900,13.25510888671875,9.359782218933105,2.9261679649353027,0.04869549721479416
1759864136757107700,13.265107666015625,9.341987609863281,2.9825563430786133,0.04458002373576164
1759864136767106600,13.2751064453125,9.328038215637207,3.025949478149414,0.04129033535718918
1759864136777105200,13.285105224609374,9.317668914794922,3.0577428340911865,0.040298838168382645
1759864136787104000,13.29510400390625,9.308929443359375,3.0841968059539795,0.04399126395583153
1759864136797102800,13.305102783203125,9.299795150756836,3.1114675998687744,0.05432473495602608
1759864136807101400,13.315101318359375,9.289556503295898,3.141568422317505,0.07113426923751831
1759864136817100300,13.325100341796874,9.278952598571777,3.172210931777954,0.09211232513189316
1759864136827099000,13.335098876953126,9.269214630126953,3.1998143196105957,0.11500468105077744
1759864136837097200,13.34509716796875,9.261556625366211,3.22102952003479,0.13751623034477234
1759864136847096000,13.355095947265625,9.257238388061523,3.232595205307007,0.1557176560163498
1759864136857094700,13.3650947265625,9.257462501525879,3.231288194656372,0.1689263880252838
1759864136867093500,13.375093505859375,9.262165069580078,3.2172114849090576,0.17955562472343445
1759864136877092000,13.385092041015625,9.270099639892578,3.193742275238037,0.1887717843055725
1759864136887091000,13.395091064453124,9.27975082397461,3.1650519371032715,0.19760610163211823
1759864136897089800,13.40508984375,9.289665222167969,3.1352314949035645,0.20689284801483154
1759864136907088400,13.41508837890625,9.299057960510254,3.106605291366577,0.21659064292907715
1759864136917087200,13.425087158203125,9.308110237121582,3.0786492824554443,0.22665713727474213
