time,seconds_elapsed,z,y,x
1759864123823552500,0.331552490234375,-158.94000244140625,76.37999725341797,22.260000228881836
1759864123855552500,0.363552490234375,-159.47999572753906,75.95999908447266,22.85999870300293
1759864123865557200,0.37355712890625,-160.01998901367188,76.08000183105469,22.85999870300293
1759864123875556400,0.383556396484375,-159.47999572753906,76.08000183105469,23.279998779296875
1759864123885556200,0.39355615234375,-159.77999877929688,75.9000015258789,23.81999969482422
1759864123895556400,0.403556396484375,-159.5399932861328,75.23999786376953,24.059999465942383
1759864123905556200,0.41355615234375,-159.4199981689453,74.81999969482422,24.84000015258789
1759864123915556400,0.423556396484375,-159.4199981689453,74.4000015258789,25.3799991607666
1759864123925556200,0.43355615234375,-158.94000244140625,74.15999603271484,25.68000030517578
1759864123935556400,0.443556396484375,-158.94000244140625,74.04000091552734,26.15999984741211
1759864123945556200,0.45355615234375,-158.75999450683594,73.31999969482422,26.399999618530273
1759864123955556400,0.463556396484375,-158.75999450683594,72.41999816894531,26.69999885559082
1759864123965556200,0.47355615234375,-158.63999938964844,71.93999481201172,26.760000228881836
1759864123975556400,0.483556396484375,-158.51998901367188,71.22000122070312,27.119998931884766
1759864123985556200,0.49355615234375,-158.6999969482422,71.27999877929688,27.119998931884766
1759864123995556400,0.503556396484375,-158.45999145507812,71.76000213623047,27.239999771118164
1759864124005557000,0.513556884765625,-158.22000122070312,71.58000183105469,27.53999900817871
1759864124015557000,0.52355712890625,-158.33999633789062,71.63999938964844,27.719999313354492
1759864124025557000,0.533556884765625,-158.0399932861328,71.58000183105469,27.779998779296875
1759864124035557000,0.54355712890625,-158.0399932861328,71.33999633789062,27.299999237060547
1759864124045557000,0.553556884765625,-158.33999633789062,71.27999877929688,27.53999900817871
1759864124055557000,0.56355712890625,-158.39999389648438,71.22000122070312,27.65999984741211
1759864124065557000,0.573556884765625,-158.39999389648438,71.27999877929688,27.899999618530273
1759864124075557000,0.58355712890625,-158.6999969482422,71.4000015258789,28.799999237060547
1759864124085557000,0.593556884765625,-158.6999969482422,71.81999969482422,28.799999237060547
1759864124095557000,0.60355712890625,-158.63999938964844,72.05999755859375,28.85999870300293
1759864124105557000,0.613556884765625,-159.1199951171875,72.1199951171875,28.85999870300293
1759864124115557600,0.6235576171875,-159,72.05999755859375,28.3799991607666
1759864124125557500,0.6335576171875,-159.36000061035156,72.29999542236328,28.3799991607666
1759864124135557600,0.6435576171875,-159.66000366210938,72.9000015258789,28.31999969482422
1759864124145557500,0.6535576171875,-159.89999389648438,73.26000213623047,28.01999855041504
1759864124155557600,0.6635576171875,-160.739990234375,73.5,28.260000228881836
1759864124165557000,0.673556884765625,-161.09999084472656,73.86000061035156,28.559999465942383
1759864124175557000,0.68355712890625,-161.09999084472656,74.27999877929688,28.5
1759864124185557200,0.69355712890625,-161.27999877929688,74.87999725341797,28.739999771118164
1759864124195557000,0.70355712890625,-161.16000366210938,75.18000030517578,28.739999771118164
1759864124205557200,0.71355712890625,-160.97999572753906,75.36000061035156,28.3799991607666
1759864124215557000,0.72355712890625,-161.27999877929688,75.65999603271484,27.84000015258789
1759864124225557200,0.73355712890625,-161.0399932861328,75.72000122070312,27.899999618530273
1759864124235557000,0.74355712890625,-160.97999572753906,76.5,27.719999313354492
1759864124245557200,0.75355712890625,-161.27999877929688,77.33999633789062,27.65999984741211
1759864124255557600,0.7635576171875,-162,77.93999481201172,27.959999084472656
1759864124265557800,0.773557861328125,-162.36000061035156,78.47999572753906,28.01999855041504
1759864124275557600,0.7835576171875,-162.47999572753906,78.83999633789062,28.01999855041504
1759864124285557000,0.793556884765625,-162.83999633789062,78.95999908447266,28.260000228881836
1759864124295556000,0.80355615234375,-163.13999938964844,79.43999481201172,28.260000228881836
1759864124305555200,0.81355517578125,-163.739990234375,80.33999633789062,27.779998779296875
1759864124315554800,0.823554931640625,-164.45999145507812,81.36000061035156,28.01999855041504
1759864124325554400,0.833554443359375,-164.75999450683594,82.19999694824219,27.420000076293945
1759864124335553800,0.8435537109375,-164.6999969482422,83.4000015258789,26.8799991607666
1759864124345553400,0.853553466796875,-164.8199920654297,84.41999816894531,27
1759864124355553300,0.86355322265625,-165.239990234375,85.6199951171875,26.219999313354492
1759864124365553400,0.873553466796875,-165.36000061035156,86.75999450683594,25.920000076293945
1759864124375553300,0.88355322265625,-165.59999084472656,87.65999603271484,25.979999542236328
1759864124385553200,0.89355322265625,-166.25999450683594,87.95999908447266,25.3799991607666
1759864124395552500,0.903552490234375,-166.13999938964844,89.0999984741211,24.899999618530273
1759864124405552400,0.913552490234375,-166.6199951171875,90.36000061035156,24.119998931884766
1759864124415551700,0.9235517578125,-166.86000061035156,90.5999984741211,23.579999923706055
1759864124425551600,0.933551513671875,-166.3199920654297,91.43999481201172,22.799999237060547
1759864124435551500,0.943551513671875,-166.1999969482422,91.43999481201172,22.079999923706055
1759864124445551000,0.953551025390625,-166.13999938964844,91.13999938964844,21.600000381469727
1759864124455551000,0.963551025390625,-165.77999877929688,91.37999725341797,21.479999542236328
1759864124465550600,0.973550537109375,-165.5399932861328,90.83999633789062,21.899999618530273
1759864124475550200,0.98355029296875,-165.239990234375,90.18000030517578,22.020000457763672
1759864124485549800,0.9935498046875,-164.39999389648438,89.75999450683594,22.19999885559082
1759864124495549400,1.003549560546875,-164.39999389648438,89.4000015258789,22.260000228881836
1759864124505548800,1.013548828125,-164.22000122070312,89.69999694824219,21.65999984741211
1759864124515548200,1.023548095703125,-164.0399932861328,89.75999450683594,21.18000030517578
1759864124525547800,1.0335478515625,-164.39999389648438,89.69999694824219,21.119998931884766
1759864124535547100,1.043547119140625,-164.16000366210938,89.33999633789062,20.15999984741211
1759864124545546500,1.05354638671875,-164.39999389648438,88.86000061035156,20.15999984741211
1759864124555545300,1.06354541015625,-164.51998901367188,88.6199951171875,20.34000015258789
1759864124565544400,1.07354443359375,-164.39999389648438,88.5,20.100000381469727
1759864124575543800,1.083543701171875,-163.97999572753906,88.37999725341797,19.979999542236328
1759864124585543400,1.09354345703125,-163.25999450683594,88.31999969482422,19.85999870300293
1759864124595543600,1.10354345703125,-162.95999145507812,87.77999877929688,19.85999870300293
1759864124605543000,1.11354296875,-162.66000366210938,87.29999542236328,19.85999870300293
1759864124615541800,1.123541748046875,-162.47999572753906,86.81999969482422,20.15999984741211
1759864124625540400,1.133540283203125,-162.4199981689453,86.81999969482422,20.219999313354492
1759864124635540000,1.1435400390625,-162.5399932861328,87,20.15999984741211
1759864124645538600,1.15353857421875,-162.47999572753906,86.87999725341797,20.34000015258789
1759864124655537200,1.163537109375,-162.5399932861328,87.1199951171875,20.219999313354492
1759864124665536000,1.173535888671875,-163.01998901367188,86.87999725341797,20.15999984741211
1759864124675534600,1.18353466796875,-162.83999633789062,87,19.979999542236328
1759864124685532700,1.19353271484375,-162.72000122070312,87.18000030517578,19.619998931884766
1759864124695531300,1.20353125,-162.83999633789062,87.1199951171875,19.739999771118164
1759864124705530000,1.213530029296875,-162.59999084472656,86.87999725341797,19.920000076293945
1759864124715528700,1.22352880859375,-162.77999877929688,86.58000183105469,20.15999984741211
1759864124725527600,1.233527587890625,-163.1999969482422,86.5199966430664,19.920000076293945
1759864124735526100,1.243526123046875,-162.89999389648438,86.58000183105469,19.739999771118164
1759864124745525000,1.25352490234375,-162.72000122070312,86.27999877929688,19.799999237060547
1759864124755523300,1.2635234375,-162.66000366210938,86.22000122070312,19.3799991607666
1759864124765522000,1.27352197265625,-162.36000061035156,86.04000091552734,19.619998931884766
1759864124775520800,1.283520751953125,-162.66000366210938,86.04000091552734,20.03999900817871
1759864124785519400,1.293519287109375,-162.59999084472656,86.22000122070312,19.5
1759864124795518200,1.303518310546875,-162.77999877929688,86.22000122070312,19.85999870300293
1759864124805517000,1.31351708984375,-162.83999633789062,86.04000091552734,19.68000030517578
1759864124815515600,1.323515625,-162.77999877929688,85.6199951171875,19.19999885559082
1759864124825514500,1.333514404296875,-162.83999633789062,85.31999969482422,19.3799991607666
1759864124835513000,1.34351318359375,-162.17999267578125,85.19999694824219,18.600000381469727
1759864124845512000,1.353511962890625,-161.75999450683594,85.19999694824219,18.65999984741211
1759864124855510800,1.3635107421875,-161.0399932861328,85.31999969482422,18.299999237060547
1759864124865509400,1.37350927734375,-160.97999572753906,85.6199951171875,18.059999465942383
1759864124875508200,1.38350830078125,-161.0399932861328,85.73999786376953,18.35999870300293
1759864124885506600,1.393506591796875,-160.97999572753906,85.91999816894531,18.059999465942383
1759864124895504400,1.40350439453125,-161.6999969482422,86.27999877929688,18.35999870300293
1759864124905503200,1.413503173828125,-161.45999145507812,86.58000183105469,18.479999542236328
1759864124915502600,1.423502685546875,-162.239990234375,87.05999755859375,18.53999900817871
1759864124925502000,1.433501953125,-162.4199981689453,87.05999755859375,18.53999900817871
1759864124935500500,1.44350048828125,-162.5399932861328,86.63999938964844,18.53999900817871
1759864124945499100,1.4534990234375,-162.83999633789062,86.33999633789062,18.779998779296875
1759864124965495600,1.47349560546875,-162.77999877929688,85.91999816894531,19.85999870300293
1759864125025488000,1.53348779296875,-163.9199981689453,87.41999816894531,20.520000457763672
1759864125035486700,1.54348681640625,-163.86000061035156,87.1199951171875,20.219999313354492
1759864125045485600,1.553485595703125,-163.67999267578125,87,20.219999313354492
1759864125055484700,1.563484619140625,-163.44000244140625,87.36000061035156,21
1759864125065483500,1.5734833984375,-163.86000061035156,87.9000015258789,21
1759864125075482000,1.583482177734375,-164.09999084472656,88.31999969482422,21.420000076293945
1759864125085481000,1.59348095703125,-164.16000366210938,88.6199951171875,21.84000015258789
1759864125095479600,1.6034794921875,-164.63999938964844,88.79999542236328,21.65999984741211
1759864125105478400,1.613478515625,-164.5800018310547,88.86000061035156,22.260000228881836
1759864125115477000,1.62347705078125,-165,88.97999572753906,22.559999465942383
1759864125125475800,1.633475830078125,-165.66000366210938,89.33999633789062,22.619998931884766
1759864125135474400,1.643474365234375,-165.59999084472656,89.81999969482422,22.619998931884766
1759864125145473300,1.653473388671875,-165.83999633789062,90.41999816894531,22.19999885559082
1759864125155472000,1.663471923828125,-165.59999084472656,91.37999725341797,22.139999389648438
1759864125165470700,1.673470703125,-165.3000030517578,91.79999542236328,22.020000457763672
1759864125175469600,1.683469482421875,-165.47999572753906,92.4000015258789,23.219999313354492
1759864125185468000,1.693468017578125,-165.66000366210938,92.5199966430664,24.059999465942383
1759864125195468000,1.703468017578125,-165.66000366210938,92.4000015258789,24.18000030517578
1759864125205467000,1.713466796875,-165.66000366210938,92.81999969482422,24.65999984741211
1759864125215465500,1.723465576171875,-165.5399932861328,92.81999969482422,23.8799991607666
1759864125225464300,1.73346435546875,-165.47999572753906,93.29999542236328,23.279998779296875
1759864125235463200,1.743463134765625,-165.66000366210938,94.07999420166016,23.459999084472656
1759864125245462800,1.753462890625,-165.95999145507812,94.19999694824219,23.279998779296875
1759864125255462700,1.763462646484375,-166.0800018310547,93.9000015258789,23.15999984741211
1759864125265461800,1.773461669921875,-165.72000122070312,93.54000091552734,23.34000015258789
1759864125275461000,1.783461181640625,-166.3199920654297,93.1199951171875,23.279998779296875
1759864125285460000,1.7934599609375,-166.37998962402344,92.27999877929688,23.34000015258789
1759864125295459300,1.803459228515625,-166.8000030517578,92.27999877929688,23.459999084472656
1759864125305458700,1.813458740234375,-166.9199981689453,91.86000061035156,23.219999313354492
1759864125315457300,1.823457275390625,-166.44000244140625,90.9000015258789,23.51999855041504
1759864125325456100,1.8334560546875,-166.0800018310547,90.47999572753906,23.760000228881836
1759864125335454700,1.843454833984375,-165.59999084472656,89.63999938964844,24
1759864125345453600,1.85345361328125,-165.5399932861328,89.4000015258789,24.119998931884766
1759864125355452400,1.863452392578125,-165.72000122070312,88.97999572753906,23.8799991607666
1759864125365451000,1.873450927734375,-165.47999572753906,88.97999572753906,23.639999389648438
1759864125375449900,1.883449951171875,-165.89999389648438,89.22000122070312,23.51999855041504
1759864125385448700,1.89344873046875,-165.72000122070312,89.04000091552734,23.15999984741211
1759864125395447300,1.903447265625,-165.4199981689453,89.15999603271484,22.799999237060547
1759864125405446100,1.913446044921875,-165.47999572753906,88.97999572753906,22.5
1759864125415445000,1.923445068359375,-164.94000244140625,88.97999572753906,22.19999885559082
1759864125425443800,1.93344384765625,-165.3000030517578,88.97999572753906,22.619998931884766
1759864125435442700,1.943442626953125,-165.17999267578125,88.97999572753906,22.920000076293945
1759864125445441500,1.953441650390625,-165.239990234375,89.0999984741211,22.68000030517578
1759864125455440400,1.9634404296875,-165.239990234375,88.55999755859375,22.739999771118164
1759864125465439500,1.973439453125,-165.3000030517578,88.31999969482422,22.260000228881836
1759864125475438300,1.983438232421875,-165.1199951171875,88.08000183105469,22.139999389648438
1759864125485438200,1.993438232421875,-165.05999755859375,87.77999877929688,22.619998931884766
1759864125495436800,2.003436767578125,-165.3000030517578,87.77999877929688,22.559999465942383
1759864125505436000,2.013435791015625,-165.05999755859375,87.47999572753906,22.920000076293945
1759864125515435000,2.02343505859375,-165.5399932861328,87.36000061035156,22.85999870300293
1759864125525434000,2.03343408203125,-165.36000061035156,87.05999755859375,22.619998931884766
1759864125535433200,2.04343310546875,-164.8199920654297,86.87999725341797,22.979999542236328
1759864125545432300,2.053432373046875,-164.94000244140625,87.29999542236328,22.920000076293945
1759864125555431200,2.06343115234375,-164.39999389648438,87.65999603271484,22.739999771118164
1759864125565430300,2.07343017578125,-164.39999389648438,87.95999908447266,22.559999465942383
1759864125575429400,2.083429443359375,-164.63999938964844,88.25999450683594,22.260000228881836
1759864125585428500,2.093428466796875,-164.5800018310547,88.55999755859375,22.19999885559082
1759864125595427600,2.103427490234375,-164.75999450683594,88.68000030517578,22.079999923706055
1759864125605426700,2.1134267578125,-165,88.91999816894531,21.719999313354492
1759864125625423400,2.13342333984375,-165,89.04000091552734,21.420000076293945
1759864125635422500,2.14342236328125,-165.17999267578125,88.97999572753906,21.35999870300293
1759864125645421600,2.153421630859375,-164.87998962402344,89.0999984741211,21.899999618530273
1759864125655420700,2.163420654296875,-164.6999969482422,88.91999816894531,21.84000015258789
1759864125665419800,2.173419677734375,-164.51998901367188,88.6199951171875,21.959999084472656
1759864125675419000,2.1834189453125,-164.51998901367188,88.79999542236328,22.020000457763672
1759864125685418000,2.19341796875,-164.87998962402344,88.19999694824219,21.84000015258789
1759864125695416800,2.203416748046875,-164.5800018310547,88.13999938964844,21.779998779296875
1759864125705415200,2.213415283203125,-164.8199920654297,88.0199966430664,22.079999923706055
1759864125715414300,2.223414306640625,-164.33999633789062,87.18000030517578,22.19999885559082
1759864125725413000,2.2334130859375,-163.739990234375,87.29999542236328,22.260000228881836
1759864125735411500,2.243411376953125,-163.67999267578125,87.05999755859375,22.260000228881836
1759864125745410600,2.25341064453125,-163.44000244140625,86.93999481201172,22.260000228881836
1759864125755409400,2.263409423828125,-163.37998962402344,87.18000030517578,22.5
1759864125765408300,2.273408203125,-163.8000030517578,87.18000030517578,22.68000030517578
1759864125775407000,2.283406982421875,-164.16000366210938,86.93999481201172,22.920000076293945
1759864125785406000,2.293406005859375,-164.33999633789062,87,22.920000076293945
1759864125795404800,2.30340478515625,-164.39999389648438,86.93999481201172,22.559999465942383
1759864125805403400,2.3134033203125,-164.51998901367188,86.63999938964844,21.959999084472656
1759864125815402200,2.32340234375,-164.51998901367188,86.45999908447266,22.079999923706055
1759864125825400800,2.33340087890625,-164.51998901367188,86.15999603271484,21.899999618530273
1759864125835399400,2.3433994140625,-164.39999389648438,86.27999877929688,21.959999084472656
1759864125845398300,2.353398193359375,-164.33999633789062,86.69999694824219,22.19999885559082
1759864125855397000,2.363397216796875,-164.45999145507812,86.69999694824219,21.899999618530273
1759864125865395700,2.373395751953125,-164.16000366210938,86.81999969482422,21.65999984741211
1759864125875394600,2.38339453125,-164.09999084472656,86.81999969482422,21.84000015258789
1759864125885393000,2.393392822265625,-164.0399932861328,86.4000015258789,21.899999618530273
1759864125895391700,2.403391845703125,-163.8000030517578,86.69999694824219,21.600000381469727
1759864125905390600,2.413390625,-163.67999267578125,86.81999969482422,21.959999084472656
1759864125915389400,2.423389404296875,-163.6199951171875,86.69999694824219,21.719999313354492
1759864125925389000,2.43338916015625,-163.37998962402344,86.4000015258789,21.959999084472656
1759864125935387600,2.4433876953125,-163.01998901367188,86.5199966430664,22.260000228881836
1759864125945385700,2.4533857421875,-163.1999969482422,86.58000183105469,22.260000228881836
1759864125955383800,2.4633837890625,-163.37998962402344,86.69999694824219,22.559999465942383
1759864125965382100,2.473382080078125,-163.44000244140625,87.18000030517578,22.3799991607666
1759864125975381000,2.483381103515625,-164.0399932861328,86.4000015258789,22.739999771118164
1759864125985379600,2.493379638671875,-164.16000366210938,85.6199951171875,22.5
1759864125995378700,2.503378662109375,-164.22000122070312,84.9000015258789,22.619998931884766
1759864126005378300,2.51337841796875,-164.45999145507812,84.41999816894531,22.920000076293945
1759864126015377000,2.523376953125,-164.51998901367188,84.65999603271484,23.459999084472656
1759864126025375700,2.533375732421875,-164.94000244140625,84.95999908447266,24.420000076293945
1759864126035375000,2.543375,-165.36000061035156,85.19999694824219,24.420000076293945
1759864126045374000,2.5533740234375,-165,84.83999633789062,24.600000381469727
1759864126055372500,2.56337255859375,-165.05999755859375,85.25999450683594,24.059999465942383
1759864126065371400,2.573371337890625,-164.94000244140625,85.43999481201172,23.69999885559082
1759864126075370200,2.583370361328125,-164.8199920654297,85.6199951171875,23.51999855041504
1759864126085368800,2.593368896484375,-165.1199951171875,86.63999938964844,22.920000076293945
1759864126095367700,2.60336767578125,-164.94000244140625,86.69999694824219,22.68000030517578
1759864126105366300,2.6133662109375,-165.05999755859375,87.47999572753906,22.85999870300293
1759864126115365000,2.623365234375,-164.87998962402344,88.08000183105469,23.03999900817871
1759864126125364000,2.633364013671875,-165,87.72000122070312,22.739999771118164
1759864126135362600,2.643362548828125,-165.4199981689453,87.72000122070312,22.619998931884766
1759864126145361400,2.653361328125,-164.94000244140625,87.23999786376953,21.719999313354492
1759864126155360300,2.6633603515625,-165.239990234375,86.87999725341797,21.779998779296875
1759864126165358800,2.67335888671875,-164.94000244140625,87.23999786376953,22.19999885559082
1759864126175357700,2.683357666015625,-164.5800018310547,87.36000061035156,22.260000228881836
1759864126185356500,2.6933564453125,-164.45999145507812,87.36000061035156,22.68000030517578
1759864126195355400,2.70335546875,-163.9199981689453,87.05999755859375,22.020000457763672
1759864126205354000,2.71335400390625,-163.86000061035156,86.0999984741211,21.719999313354492
1759864126215353000,2.72335302734375,-163.55999755859375,85.31999969482422,21.479999542236328
1759864126225352000,2.73335205078125,-163.44000244140625,85.0199966430664,21
1759864126235350500,2.7433505859375,-163.37998962402344,84.83999633789062,20.8799991607666
1759864126245350100,2.75335009765625,-163.01998901367188,85.13999938964844,20.8799991607666
1759864126255349500,2.763349609375,-162.89999389648438,85.55999755859375,20.639999389648438
1759864126275347200,2.78334716796875,-162.89999389648438,85.5,20.34000015258789
1759864126285346000,2.793345947265625,-162.83999633789062,85.68000030517578,20.100000381469727
1759864126295345000,2.803344970703125,-162.95999145507812,85.91999816894531,19.799999237060547
1759864126305343500,2.813343505859375,-162.95999145507812,85.97999572753906,19.68000030517578
1759864126315342300,2.82334228515625,-162.66000366210938,86.0999984741211,19.619998931884766
1759864126325341200,2.833341064453125,-162.5399932861328,86.04000091552734,19.559999465942383
1759864126335339800,2.84333984375,-162.4199981689453,85.97999572753906,19.559999465942383
1759864126345338600,2.853338623046875,-162.1199951171875,85.5,19.439998626708984
1759864126355337200,2.863337158203125,-162.47999572753906,85.68000030517578,19.3799991607666
1759864126365336000,2.873336181640625,-162.1199951171875,85.68000030517578,19.19999885559082
1759864126375334100,2.883334228515625,-162.239990234375,85.5,19.68000030517578
1759864126385332700,2.893332763671875,-162.4199981689453,85.97999572753906,19.85999870300293
1759864126395331600,2.90333154296875,-162.36000061035156,85.55999755859375,19.979999542236328
1759864126405330400,2.913330322265625,-162.83999633789062,85.79999542236328,20.34000015258789
1759864126415329000,2.9233291015625,-162.66000366210938,85.55999755859375,19.799999237060547
1759864126425327900,2.933327880859375,-162.36000061035156,85.19999694824219,19.5
1759864126435326700,2.94332666015625,-162.239990234375,85.43999481201172,19.5
1759864126445325300,2.9533251953125,-162.47999572753906,85.19999694824219,19.020000457763672
1759864126455324200,2.96332421875,-162.5399932861328,85.6199951171875,19.68000030517578
1759864126465323000,2.973322998046875,-162.95999145507812,86.33999633789062,20.03999900817871
1759864126475321600,2.983321533203125,-163.25999450683594,86.69999694824219,20.399999618530273
1759864126485320400,2.993320556640625,-163.37998962402344,87.23999786376953,20.69999885559082
1759864126495319000,3.003319091796875,-163.5,87.5999984741211,20.100000381469727
1759864126505318000,3.01331787109375,-163.1999969482422,87.72000122070312,19.920000076293945
1759864126515316700,3.023316650390625,-163.6199951171875,88.25999450683594,19.739999771118164
1759864126525315600,3.033315673828125,-163.44000244140625,88.73999786376953,19.920000076293945
1759864126535314400,3.043314453125,-163.55999755859375,89.22000122070312,20.15999984741211
1759864126545313500,3.0533134765625,-164.0399932861328,89.93999481201172,20.279998779296875
1759864126555312400,3.0633125,-164.0399932861328,90.23999786376953,20.219999313354492
1759864126565311500,3.0733115234375,-164.0399932861328,90.9000015258789,20.15999984741211
1759864126575310300,3.083310302734375,-164.0399932861328,91.13999938964844,20.100000381469727
1759864126585309400,3.093309326171875,-164.09999084472656,91.43999481201172,20.100000381469727
1759864126595308500,3.10330859375,-163.55999755859375,91.73999786376953,20.03999900817871
1759864126605307600,3.1133076171875,-163.5,91.31999969482422,19.68000030517578
1759864126615306500,3.123306396484375,-163.13999938964844,91.31999969482422,19.5
1759864126625305600,3.1333056640625,-162.89999389648438,91.5,19.079999923706055
1759864126635304700,3.1433046875,-162.83999633789062,91.19999694824219,19.3799991607666
1759864126645303800,3.1533037109375,-163.44000244140625,91.43999481201172,19.619998931884766
1759864126655303000,3.163302978515625,-164.16000366210938,91.68000030517578,20.15999984741211
1759864126665301800,3.1733017578125,-164.22000122070312,91.25999450683594,20.279998779296875
1759864126675301600,3.183301513671875,-164.6999969482422,91.37999725341797,20.03999900817871
1759864126685300700,3.19330078125,-164.16000366210938,91.13999938964844,19.739999771118164
1759864126695299600,3.203299560546875,-163.37998962402344,91.31999969482422,19.139999389648438
1759864126705298700,3.213298583984375,-163.55999755859375,91.31999969482422,19.559999465942383
1759864126715297800,3.2232978515625,-163.37998962402344,91.68000030517578,19.3799991607666
1759864126725297000,3.233296875,-163.97999572753906,92.22000122070312,19.920000076293945
1759864126745294800,3.253294921875,-164.75999450683594,92.5199966430664,19.5
1759864126755294000,3.2632939453125,-165.1199951171875,92.27999877929688,19.920000076293945
1759864126765293000,3.27329296875,-164.51998901367188,91.73999786376953,19.739999771118164
1759864126775292200,3.283292236328125,-164.6999969482422,91.86000061035156,20.34000015258789
1759864126785291300,3.293291259765625,-164.45999145507812,91.97999572753906,20.459999084472656
1759864126795290400,3.303290283203125,-164.27999877929688,92.63999938964844,20.399999618530273
1759864126805289200,3.313289306640625,-164.8199920654297,92.81999969482422,20.520000457763672
1759864126815288300,3.323288330078125,-164.63999938964844,92.69999694824219,20.34000015258789
1759864126825287200,3.333287109375,-164.8199920654297,92.69999694824219,20.03999900817871
1759864126835286000,3.3432861328125,-164.6999969482422,92.27999877929688,20.279998779296875
1759864126845285000,3.35328515625,-164.33999633789062,92.63999938964844,19.979999542236328
1759864126855283700,3.36328369140625,-164.09999084472656,92.45999908447266,20.34000015258789
1759864126865282600,3.373282470703125,-164.22000122070312,91.86000061035156,20.279998779296875
1759864126875281400,3.383281494140625,-164.0399932861328,91.43999481201172,19.920000076293945
1759864126885279500,3.393279541015625,-163.86000061035156,90.83999633789062,20.03999900817871
1759864126895277300,3.40327734375,-164.0399932861328,90.95999908447266,19.5
1759864126905275100,3.413275146484375,-163.739990234375,91.13999938964844,19.5
1759864126915274000,3.42327392578125,-163.5,91.79999542236328,19.920000076293945
1759864126925272800,3.43327294921875,-163.739990234375,92.33999633789062,19.799999237060547
1759864126935271400,3.443271484375,-163.8000030517578,92.45999908447266,19.920000076293945
1759864126945270000,3.45327001953125,-164.09999084472656,92.87999725341797,19.979999542236328
1759864126955268400,3.463268310546875,-164.63999938964844,92.0999984741211,19.68000030517578
1759864126965267200,3.47326708984375,-164.94000244140625,92.0999984741211,19.559999465942383
1759864126975265800,3.483265869140625,-164.87998962402344,91.97999572753906,19.559999465942383
1759864126985264600,3.4932646484375,-164.6999969482422,91.73999786376953,19.559999465942383
1759864126995263200,3.50326318359375,-164.45999145507812,92.0999984741211,19.3799991607666
1759864127005262000,3.513261962890625,-163.97999572753906,92.15999603271484,19.68000030517578
1759864127015261000,3.523260986328125,-164.0399932861328,92.15999603271484,19.799999237060547
1759864127025259500,3.533259521484375,-163.8000030517578,91.91999816894531,19.85999870300293
1759864127035258400,3.54325830078125,-163.8000030517578,91.86000061035156,20.100000381469727
1759864127045257200,3.55325732421875,-163.97999572753906,91.5,20.219999313354492
1759864127055255800,3.563255859375,-163.97999572753906,91.25999450683594,20.03999900817871
1759864127065254700,3.573254638671875,-164.09999084472656,91.55999755859375,20.100000381469727
1759864127095251000,3.6032509765625,-163.8000030517578,90.77999877929688,19.619998931884766
1759864127105249500,3.61324951171875,-163.739990234375,90.47999572753906,19.5
1759864127115248400,3.623248291015625,-164.09999084472656,90.41999816894531,19.739999771118164
1759864127125247000,3.6332470703125,-164.33999633789062,90.05999755859375,19.85999870300293
1759864127135245800,3.643245849609375,-164.63999938964844,89.75999450683594,19.920000076293945
1759864127145244700,3.65324462890625,-164.51998901367188,89.27999877929688,19.559999465942383
1759864127155243300,3.6632431640625,-164.0399932861328,89.27999877929688,19.3799991607666
1759864127165242000,3.6732421875,-163.44000244140625,89.5199966430664,19.260000228881836
1759864127175241000,3.683240966796875,-163.0800018310547,89.75999450683594,19.439998626708984
1759864127185240300,3.693240234375,-163.13999938964844,89.87999725341797,19.739999771118164
1759864127195240000,3.703239990234375,-163.6199951171875,90.29999542236328,19.739999771118164
1759864127205239600,3.713239501953125,-163.5,90.29999542236328,19.5
1759864127215238100,3.723238037109375,-163.9199981689453,90.41999816894531,19.020000457763672
1759864127225237000,3.733237060546875,-163.5,90.5999984741211,18.65999984741211
1759864127235235600,3.743235595703125,-163.1999969482422,90.54000091552734,18.600000381469727
1759864127245234400,3.753234375,-163.739990234375,90.83999633789062,18.479999542236328
1759864127255233000,3.76323291015625,-163.3199920654297,91.19999694824219,18.65999984741211
1759864127265231600,3.773231689453125,-163.5,91.6199951171875,18.959999084472656
1759864127275230500,3.78323046875,-164.16000366210938,91.68000030517578,18.959999084472656
1759864127285229000,3.79322900390625,-164.0399932861328,91.91999816894531,19.19999885559082
1759864127295227000,3.803226806640625,-164.0399932861328,91.55999755859375,18.899999618530273
1759864127305225700,3.813225830078125,-164.39999389648438,91.5,18.719999313354492
1759864127315224300,3.823224365234375,-163.97999572753906,91.97999572753906,18.35999870300293
1759864127325223200,3.83322314453125,-163.55999755859375,92.15999603271484,18.35999870300293
1759864127335221800,3.8432216796875,-163.55999755859375,92.15999603271484,18.600000381469727
1759864127345220600,3.853220703125,-163.8000030517578,92.57999420166016,18.959999084472656
1759864127355219200,3.86321923828125,-163.44000244140625,92.4000015258789,19.139999389648438
1759864127365218000,3.873218017578125,-164.0399932861328,91.91999816894531,18.899999618530273
1759864127375216600,3.883216552734375,-164.27999877929688,92.5199966430664,18.899999618530273
1759864127385215500,3.893215576171875,-164.09999084472656,92.4000015258789,18.899999618530273
1759864127395214000,3.903214111328125,-164.22000122070312,92.57999420166016,19.020000457763672
1759864127405213000,3.913212890625,-163.55999755859375,93.1199951171875,19.559999465942383
1759864127415211500,3.92321142578125,-163.3199920654297,92.93999481201172,19.559999465942383
1759864127425210400,3.93321044921875,-163.3199920654297,92.45999908447266,19.439998626708984
1759864127435209200,3.943209228515625,-163.86000061035156,92.33999633789062,19.31999969482422
1759864127445207800,3.953207763671875,-164.09999084472656,92.22000122070312,19.020000457763672
1759864127455206700,3.96320654296875,-164.0399932861328,91.91999816894531,18.779998779296875
1759864127465205500,3.97320556640625,-163.6199951171875,92.0999984741211,19.020000457763672
1759864127475204000,3.9832041015625,-163.13999938964844,91.6199951171875,19.079999923706055
1759864127485203000,3.993202880859375,-163.6199951171875,91.68000030517578,19.139999389648438
1759864127495201500,4.003201416015625,-163.5,91.73999786376953,19.3799991607666
1759864127505200400,4.013200439453125,-163.9199981689453,91.86000061035156,19.5
1759864127515199200,4.02319921875,-164.22000122070312,92.15999603271484,20.100000381469727
1759864127525197800,4.03319775390625,-164.33999633789062,91.73999786376953,20.15999984741211
1759864127535196700,4.04319677734375,-164.33999633789062,91.55999755859375,20.760000228881836
1759864127545195500,4.053195556640625,-164.63999938964844,91.0199966430664,21.239999771118164
1759864127555195000,4.06319482421875,-164.63999938964844,91.0199966430664,20.939998626708984
1759864127565193700,4.07319384765625,-164.0399932861328,90.77999877929688,20.939998626708984
1759864127575192300,4.0831923828125,-164.09999084472656,90.83999633789062,21.119998931884766
1759864127585191400,4.09319140625,-163.6199951171875,91.0199966430664,20.639999389648438
1759864127595190800,4.103190673828125,-163.13999938964844,90.54000091552734,20.939998626708984
1759864127605189600,4.113189697265625,-163.55999755859375,90.54000091552734,21.059999465942383
1759864127615188500,4.1231884765625,-163.55999755859375,90.41999816894531,20.939998626708984
1759864127625187300,4.133187255859375,-163.67999267578125,90.29999542236328,21.18000030517578
1759864127635186200,4.143186279296875,-163.739990234375,89.81999969482422,21.18000030517578
1759864127645185000,4.15318505859375,-163.1999969482422,89.15999603271484,21.35999870300293
1759864127655184000,4.163183837890625,-162.95999145507812,88.68000030517578,20.8799991607666
1759864127665183000,4.173182861328125,-162.83999633789062,88.31999969482422,20.81999969482422
1759864127675181800,4.183181884765625,-163.37998962402344,88.5,21
1759864127685180700,4.1931806640625,-163.739990234375,88.68000030517578,21.299999237060547
1759864127695179500,4.203179443359375,-164.09999084472656,88.5,21.719999313354492
1759864127705178400,4.213178466796875,-164.0399932861328,88.6199951171875,21.899999618530273
1759864127715177200,4.22317724609375,-163.1999969482422,88.68000030517578,21.779998779296875
1759864127725176000,4.233176025390625,-163.25999450683594,88.55999755859375,21.719999313354492
1759864127735175000,4.2431748046875,-163.37998962402344,89.33999633789062,21.779998779296875
1759864127745173800,4.253173828125,-163.5,89.4000015258789,21.719999313354492
1759864127755172600,4.263172607421875,-164.0399932861328,89.57999420166016,21.899999618530273
1759864127765171500,4.27317138671875,-164.39999389648438,90.36000061035156,22.020000457763672
1759864127775170300,4.28317041015625,-164.51998901367188,89.87999725341797,21.84000015258789
1759864127785169200,4.293169189453125,-164.39999389648438,90.1199951171875,22.3799991607666
1759864127795168000,4.30316796875,-164.22000122070312,90.29999542236328,22.439998626708984
1759864127805166800,4.313166748046875,-164.16000366210938,90.41999816894531,22.19999885559082
1759864127815165700,4.323165771484375,-163.86000061035156,90.77999877929688,22.799999237060547
1759864127825164500,4.33316455078125,-164.22000122070312,90.83999633789062,22.5
1759864127835163400,4.343163330078125,-164.33999633789062,91.19999694824219,22.5
1759864127845162200,4.353162353515625,-164.16000366210938,91.25999450683594,23.15999984741211
1759864127855161000,4.3631611328125,-164.22000122070312,91.6199951171875,22.68000030517578
1759864127865160000,4.373159912109375,-163.8000030517578,91.91999816894531,22.799999237060547
1759864127875158500,4.383158447265625,-163.8000030517578,91.97999572753906,22.85999870300293
1759864127885156900,4.393156982421875,-163.739990234375,91.91999816894531,22.559999465942383
1759864127895155200,4.4031552734375,-163.44000244140625,91.79999542236328,23.219999313354492
1759864127905153000,4.413153076171875,-163.97999572753906,91.37999725341797,23.459999084472656
1759864127915152000,4.42315185546875,-164.51998901367188,91.13999938964844,23.639999389648438
1759864127925150700,4.433150634765625,-164.94000244140625,91.31999969482422,23.639999389648438
1759864127935149300,4.4431494140625,-165.77999877929688,91.25999450683594,23.219999313354492
1759864127945148200,4.453148193359375,-165.95999145507812,91.68000030517578,23.100000381469727
1759864127955146800,4.463146728515625,-165.77999877929688,91.6199951171875,22.85999870300293
1759864127975143400,4.483143310546875,-164.94000244140625,92.27999877929688,23.15999984741211
1759864127985142300,4.493142333984375,-164.39999389648438,92.5199966430664,23.15999984741211
1759864128005139000,4.513138916015625,-164.45999145507812,92.63999938964844,23.51999855041504
1759864128015137800,4.5231376953125,-164.8199920654297,92.69999694824219,23.279998779296875
1759864128025136400,4.533136474609375,-165.1199951171875,93.41999816894531,23.8799991607666
1759864128035135200,4.54313525390625,-164.8199920654297,93.54000091552734,23.69999885559082
1759864128045133800,4.5531337890625,-164.6999969482422,93.83999633789062,23.69999885559082
1759864128055132700,4.563132568359375,-164.5800018310547,93.83999633789062,23.579999923706055
1759864128065131500,4.573131591796875,-164.87998962402344,93.18000030517578,22.979999542236328
1759864128075129600,4.583129638671875,-165.1199951171875,93.05999755859375,23.34000015258789
1759864128085128200,4.593128173828125,-164.94000244140625,93.36000061035156,23.51999855041504
1759864128095127000,4.603126953125,-165.1199951171875,93.36000061035156,23.8799991607666
1759864128105125600,4.613125732421875,-164.51998901367188,93.83999633789062,23.579999923706055
1759864128135122000,4.643121826171875,-165.5399932861328,94.6199951171875,23.100000381469727
1759864128145120800,4.653120849609375,-165.59999084472656,94.25999450683594,23.579999923706055
1759864128155119400,4.663119384765625,-165.4199981689453,94.19999694824219,23.219999313354492
1759864128167123000,4.675123046875,-164.75999450683594,94.0199966430664,23.34000015258789
1759864128177122300,4.685122314453125,-164.63999938964844,94.19999694824219,23.459999084472656
1759864128187121400,4.695121337890625,-164.5800018310547,94.97999572753906,23.579999923706055
1759864128197120800,4.705120849609375,-164.87998962402344,94.6199951171875,24
1759864128207120400,4.715120361328125,-164.8199920654297,95.04000091552734,23.939998626708984
1759864128217119200,4.725119140625,-164.8199920654297,94.6199951171875,24.119998931884766
1759864128227117800,4.735117919921875,-165.05999755859375,94.13999938964844,24.239999771118164
1759864128237116700,4.74511669921875,-164.5800018310547,94.55999755859375,24.18000030517578
1759864128247115500,4.755115478515625,-164.8199920654297,94.43999481201172,24.059999465942383
1759864128257114000,4.765114013671875,-164.94000244140625,94.5,24
1759864128267113000,4.775113037109375,-165.05999755859375,94.55999755859375,23.579999923706055
1759864128277112300,4.7851123046875,-164.63999938964844,95.0999984741211,23.639999389648438
1759864128287111200,4.795111083984375,-164.45999145507812,95.33999633789062,23.69999885559082
1759864128297110800,4.80511083984375,-164.22000122070312,95.75999450683594,23.51999855041504
1759864128307109400,4.815109375,-164.09999084472656,96.18000030517578,24.18000030517578
1759864128317108200,4.825108154296875,-164.45999145507812,95.93999481201172,23.939998626708984
1759864128327106800,4.83510693359375,-164.63999938964844,96.18000030517578,24.299999237060547
1759864128337105700,4.845105712890625,-164.27999877929688,96.47999572753906,24.299999237060547
1759864128347104300,4.855104248046875,-164.0399932861328,96.47999572753906,23.81999969482422
1759864128357103000,4.86510302734375,-164.39999389648438,96.47999572753906,23.8799991607666
1759864128367101700,4.875101806640625,-164.33999633789062,96.54000091552734,23.760000228881836
1759864128377101000,4.88510107421875,-164.8199920654297,96.54000091552734,24.119998931884766
1759864128387100000,4.895099853515625,-165.17999267578125,96.54000091552734,24.119998931884766
1759864128397098500,4.905098388671875,-164.6999969482422,97.0199966430664,24.35999870300293
1759864128407097300,4.915097412109375,-164.8199920654297,97.25999450683594,24.059999465942383
1759864128417096200,4.92509619140625,-164.6999969482422,97.31999969482422,24.239999771118164
1759864128427094800,4.9350947265625,-164.94000244140625,97.73999786376953,24.35999870300293
1759864128437093600,4.94509375,-165.3000030517578,97.5,24.35999870300293
1759864128447092200,4.95509228515625,-165.1199951171875,97.5,25.01999855041504
1759864128457091000,4.965091064453125,-165.36000061035156,97.6199951171875,24.65999984741211
1759864128467090000,4.97508984375,-165.36000061035156,97.6199951171875,25.139999389648438
1759864128477088500,4.985088623046875,-165.17999267578125,97.68000030517578,25.260000228881836
1759864128487087400,4.99508740234375,-165.83999633789062,97.97999572753906,24.959999084472656
1759864128497086000,5.0050859375,-165.72000122070312,98.33999633789062,25.85999870300293
1759864128507084800,5.015084716796875,-165.66000366210938,98.22000122070312,25.619998931884766
1759864128517083600,5.025083740234375,-166.0800018310547,98.5199966430664,25.68000030517578
1759864128527082200,5.035082275390625,-165.83999633789062,98.57999420166016,25.559999465942383
1759864128537081000,5.0450810546875,-165.89999389648438,98.4000015258789,25.01999855041504
1759864128547080000,5.055079833984375,-165.72000122070312,98.22000122070312,25.19999885559082
1759864128557078500,5.06507861328125,-165.1199951171875,98.22000122070312,25.260000228881836
1759864128567077400,5.075077392578125,-165.05999755859375,97.97999572753906,25.85999870300293
1759864128577076200,5.085076171875,-164.8199920654297,97.86000061035156,25.739999771118164
1759864128587074800,5.09507470703125,-165.17999267578125,98.04000091552734,25.619998931884766
1759864128597073700,5.10507373046875,-165.59999084472656,97.97999572753906,25.799999237060547
1759864128607072300,5.115072265625,-165.59999084472656,97.79999542236328,25.68000030517578
1759864128617071000,5.125071044921875,-165.59999084472656,97.79999542236328,25.619998931884766
1759864128627069700,5.135069580078125,-165.1199951171875,98.33999633789062,25.439998626708984
1759864128637068500,5.145068603515625,-164.94000244140625,98.0999984741211,25.260000228881836
1759864128647067400,5.1550673828125,-164.5800018310547,98.33999633789062,24.959999084472656
1759864128657066200,5.165066162109375,-164.63999938964844,98.45999908447266,25.01999855041504
1759864128667065000,5.175065185546875,-164.8199920654297,98.0999984741211,25.439998626708984
1759864128677064000,5.18506396484375,-164.8199920654297,98.5199966430664,25.439998626708984
1759864128687062800,5.195062744140625,-165.05999755859375,98.93999481201172,25.85999870300293
1759864128697062000,5.205061767578125,-165.36000061035156,99.1199951171875,26.279998779296875
1759864128707060700,5.215060791015625,-165.36000061035156,99.47999572753906,26.219999313354492
1759864128717059800,5.225059814453125,-165.239990234375,99.36000061035156,26.03999900817871
1759864128727059000,5.235058837890625,-165.47999572753906,99.23999786376953,25.85999870300293
1759864128737057800,5.245057861328125,-165.4199981689453,98.87999725341797,25.5
1759864128747057000,5.255056884765625,-165.66000366210938,98.57999420166016,25.439998626708984
1759864128757056000,5.265055908203125,-165.72000122070312,98.57999420166016,25.619998931884766
1759864128767055000,5.27505517578125,-165.05999755859375,98.15999603271484,25.619998931884766
1759864128777054200,5.28505419921875,-164.5800018310547,97.97999572753906,25.979999542236328
1759864128787053300,5.29505322265625,-164.27999877929688,98.04000091552734,26.099998474121094
1759864128797052400,5.305052490234375,-164.39999389648438,97.79999542236328,25.85999870300293
1759864128807051500,5.315051513671875,-164.87998962402344,97.68000030517578,25.68000030517578
1759864128817050600,5.325050537109375,-165.47999572753906,97.6199951171875,25.559999465942383
1759864128827049700,5.3350498046875,-165.36000061035156,97.31999969482422,25.3799991607666
1759864128837048800,5.345048828125,-165.5399932861328,97.31999969482422,25.739999771118164
1759864128847048000,5.3550478515625,-165.5399932861328,97.68000030517578,26.099998474121094
1759864128857047000,5.365047119140625,-165.72000122070312,97.79999542236328,25.979999542236328
1759864128867046000,5.3750458984375,-165.4199981689453,98.33999633789062,26.15999984741211
1759864128877044500,5.38504443359375,-165.4199981689453,98.75999450683594,26.219999313354492
1759864128887042800,5.395042724609375,-165.17999267578125,98.75999450683594,26.219999313354492
1759864128907039500,5.41503955078125,-165.5399932861328,98.93999481201172,26.399999618530273
1759864128917038600,5.42503857421875,-165.17999267578125,99.05999755859375,26.219999313354492
1759864128927037700,5.43503759765625,-165.59999084472656,98.87999725341797,26.219999313354492
1759864128937036800,5.445036865234375,-165.4199981689453,99.05999755859375,26.219999313354492
1759864128947035600,5.45503564453125,-165.59999084472656,98.93999481201172,26.34000015258789
1759864128957034800,5.46503466796875,-165.72000122070312,98.87999725341797,26.399999618530273
1759864128967033300,5.475033447265625,-165.47999572753906,99,26.15999984741211
1759864128977032200,5.4850322265625,-165.72000122070312,99.05999755859375,26.219999313354492
1759864128987031000,5.495031005859375,-165.4199981689453,98.81999969482422,26.099998474121094
1759864128997030000,5.50502978515625,-165.59999084472656,99.29999542236328,26.219999313354492
1759864129007028700,5.51502880859375,-165.59999084472656,99.72000122070312,26.099998474121094
1759864129017027600,5.525027587890625,-165.59999084472656,99.72000122070312,25.559999465942383
1759864129027026400,5.5350263671875,-165.83999633789062,100.13999938964844,25.559999465942383
1759864129037025300,5.545025390625,-165.83999633789062,99.72000122070312,25.260000228881836
1759864129047024000,5.555024169921875,-165.47999572753906,99.95999908447266,25.31999969482422
1759864129057022700,5.565022705078125,-165.239990234375,100.25999450683594,26.099998474121094
1759864129067021300,5.575021240234375,-164.87998962402344,100.19999694824219,26.099998474121094
1759864129077020200,5.585020263671875,-165.1199951171875,100.37999725341797,26.639999389648438
1759864129087018800,5.595018798828125,-165.4199981689453,100.5,27.35999870300293
1759864129097017600,5.605017578125,-165.83999633789062,100.6199951171875,27.239999771118164
1759864129107016400,5.615016357421875,-166.3199920654297,101.04000091552734,27.239999771118164
1759864129117015000,5.62501513671875,-165.95999145507812,101.87999725341797,26.579999923706055
1759864129127014000,5.635013916015625,-165.89999389648438,101.81999969482422,26.219999313354492
1759864129137012500,5.645012451171875,-165.5399932861328,102.05999755859375,26.279998779296875
1759864129147011300,5.65501123046875,-165.77999877929688,102,26.34000015258789
1759864129157010200,5.66501025390625,-166.0800018310547,101.33999633789062,26.939998626708984
1759864129167009000,5.675009033203125,-166.1999969482422,101.0999984741211,26.81999969482422
1759864129177008400,5.68500830078125,-166.25999450683594,100.6199951171875,26.459999084472656
1759864129187007700,5.6950078125,-165.59999084472656,100.79999542236328,26.279998779296875
1759864129197007400,5.70500732421875,-165.59999084472656,100.79999542236328,26.459999084472656
1759864129207007000,5.715007080078125,-165.72000122070312,100.86000061035156,26.279998779296875
1759864129217005600,5.725005615234375,-165.95999145507812,101.5199966430664,26.399999618530273
1759864129227004400,5.73500439453125,-166.5,101.69999694824219,26.639999389648438
1759864129237003300,5.745003173828125,-166.13999938964844,101.81999969482422,26.34000015258789
1759864129247001900,5.755001953125,-165.89999389648438,101.81999969482422,26.34000015258789
1759864129257000700,5.765000732421875,-165.47999572753906,101.22000122070312,26.399999618530273
1759864129266999800,5.774999755859375,-165.83999633789062,101.0999984741211,26.34000015258789
1759864129276998700,5.78499853515625,-166.37998962402344,100.97999572753906,26.459999084472656
1759864129286997500,5.79499755859375,-166.55999755859375,100.97999572753906,26.81999969482422
1759864129296996000,5.80499609375,-166.9199981689453,101.0999984741211,26.939998626708984
1759864129306995000,5.814994873046875,-166.5,100.79999542236328,26.639999389648438
1759864129316993500,5.82499365234375,-166.01998901367188,100.97999572753906,26.51999855041504
1759864129326992400,5.834992431640625,-165.89999389648438,100.37999725341797,25.979999542236328
1759864129336991200,5.8449912109375,-165.72000122070312,99.77999877929688,25.439998626708984
1759864129346989800,5.85498974609375,-165.95999145507812,99.77999877929688,25.5
1759864129356988700,5.86498876953125,-166.25999450683594,99.5999984741211,25.5
1759864129366987300,5.8749873046875,-166.86000061035156,99.77999877929688,25.619998931884766
1759864129376986000,5.884986083984375,-166.67999267578125,99.77999877929688,25.68000030517578
1759864129386985000,5.89498486328125,-166.37998962402344,99.72000122070312,26.15999984741211
1759864129396983600,5.904983642578125,-166.0800018310547,99.83999633789062,25.85999870300293
1759864129406981600,5.914981689453125,-165.59999084472656,99.95999908447266,25.979999542236328
1759864129416980500,5.92498046875,-165.72000122070312,100.86000061035156,26.219999313354492
1759864129426979000,5.93497900390625,-165.239990234375,100.91999816894531,25.68000030517578
1759864129436978000,5.94497802734375,-165.4199981689453,100.86000061035156,25.739999771118164
1759864129446976500,5.9549765625,-165.5399932861328,100.91999816894531,25.739999771118164
1759864129456975000,5.96497509765625,-165.47999572753906,100.73999786376953,25.68000030517578
1759864129466974000,5.974973876953125,-165.89999389648438,100.79999542236328,25.739999771118164
1759864129476972500,5.98497265625,-166.0800018310547,100.91999816894531,25.85999870300293
1759864129486971400,5.994971435546875,-166.0800018310547,100.68000030517578,25.559999465942383
1759864129496970200,6.00497021484375,-166.44000244140625,100.19999694824219,25.439998626708984
1759864129506968800,6.01496875,-166.5,100.55999755859375,25.19999885559082
1759864129516967700,6.0249677734375,-166.1999969482422,101.04000091552734,24.84000015258789
1759864129526966500,6.034966552734375,-166.01998901367188,101.63999938964844,24.899999618530273
1759864129536965000,6.044965087890625,-165.59999084472656,101.87999725341797,25.01999855041504
1759864129546964000,6.0549638671875,-165.89999389648438,101.81999969482422,25.260000228881836
1759864129556962600,6.064962646484375,-166.13999938964844,101.04000091552734,25.619998931884766
1759864129566961400,6.07496142578125,-166.13999938964844,100.5,25.619998931884766
1759864129576960300,6.084960205078125,-166.3199920654297,100.37999725341797,25.559999465942383
1759864129586958800,6.094958740234375,-165.95999145507812,100.31999969482422,25.439998626708984
1759864129596957700,6.104957763671875,-165.5399932861328,100.73999786376953,25.19999885559082
1759864129606956300,6.114956298828125,-165.72000122070312,100.97999572753906,25.19999885559082
1759864129616955100,6.124955078125,-165.77999877929688,101.5199966430664,25.139999389648438
1759864129626954000,6.1349541015625,-165.83999633789062,101.4000015258789,25.079999923706055
1759864129636952600,6.14495263671875,-166.01998901367188,101.4000015258789,25.31999969482422
1759864129646951400,6.154951416015625,-165.83999633789062,101.63999938964844,25.260000228881836
1759864129656950300,6.1649501953125,-165.5399932861328,101.45999908447266,25.079999923706055
1759864129666948900,6.174948974609375,-165.05999755859375,101.4000015258789,25.079999923706055
1759864129676947700,6.18494775390625,-165.239990234375,101.87999725341797,25.139999389648438
1759864129686946600,6.194946533203125,-165.4199981689453,101.45999908447266,25.19999885559082
1759864129696945200,6.204945068359375,-165.72000122070312,101.45999908447266,25.559999465942383
1759864129706944500,6.214944580078125,-166.1999969482422,101.69999694824219,25.799999237060547
1759864129716943400,6.224943359375,-165.89999389648438,101.75999450683594,25.68000030517578
1759864129726942200,6.234942138671875,-165.95999145507812,102.29999542236328,25.739999771118164
1759864129736940800,6.24494091796875,-166.13999938964844,102.36000061035156,25.139999389648438
1759864129746939600,6.254939697265625,-165.95999145507812,102.72000122070312,25.19999885559082
1759864129756938500,6.2649384765625,-166.44000244140625,102.18000030517578,25.01999855041504
1759864129766937300,6.274937255859375,-166.55999755859375,102.05999755859375,25.01999855041504
1759864129776936400,6.2849365234375,-166.5,101.5199966430664,25.439998626708984
1759864129786935300,6.294935302734375,-166.5,101.04000091552734,25.31999969482422
1759864129796934100,6.30493408203125,-166.44000244140625,101.45999908447266,25.3799991607666
1759864129806933200,6.314933349609375,-166.01998901367188,101.04000091552734,25.01999855041504
1759864129816932000,6.32493212890625,-165.72000122070312,101.04000091552734,24.600000381469727
1759864129826931200,6.33493115234375,-165.89999389648438,100.6199951171875,24.719999313354492
1759864129836930300,6.344930419921875,-165.59999084472656,99.95999908447266,24.899999618530273
1759864129846929400,6.354929443359375,-165.89999389648438,100.19999694824219,25.19999885559082
1759864129856928500,6.364928466796875,-165.89999389648438,99.9000015258789,25.3799991607666
1759864129866927400,6.37492724609375,-165.77999877929688,100.0199966430664,25.260000228881836
1759864129876925700,6.38492578125,-165.83999633789062,100.0199966430664,25.01999855041504
1759864129886924000,6.394924072265625,-165.77999877929688,99.77999877929688,25.260000228881836
1759864129896923400,6.40492333984375,-165.59999084472656,99.95999908447266,25.68000030517578
1759864129906921500,6.41492138671875,-165.59999084472656,99.83999633789062,25.5
1759864129916920600,6.424920654296875,-165.66000366210938,99.83999633789062,25.559999465942383
1759864129926919400,6.43491943359375,-165.95999145507812,99.83999633789062,25.68000030517578
1759864129936918300,6.444918212890625,-165.95999145507812,99.5999984741211,25.079999923706055
1759864129946917400,6.45491748046875,-165.72000122070312,99.95999908447266,25.439998626708984
1759864129956916500,6.46491650390625,-165.5399932861328,100.13999938964844,25.19999885559082
1759864129966914800,6.474914794921875,-165.3000030517578,100.07999420166016,24.600000381469727
1759864129976914000,6.484913818359375,-165.3000030517578,100.5,25.01999855041504
1759864129986912800,6.494912841796875,-165.77999877929688,100.25999450683594,25.139999389648438
1759864129996911900,6.504911865234375,-166.1999969482422,100.25999450683594,25.19999885559082
1759864130006911000,6.514910888671875,-165.95999145507812,100.79999542236328,25.619998931884766
1759864130016910000,6.52491015625,-166.6199951171875,100.68000030517578,25.439998626708984
1759864130026909200,6.5349091796875,-167.0399932861328,100.79999542236328,25.31999969482422
1759864130036908300,6.544908203125,-166.86000061035156,100.79999542236328,25.739999771118164
1759864130046907100,6.5549072265625,-167.09999084472656,100.73999786376953,25.559999465942383
1759864130056906200,6.56490625,-167.39999389648438,100.73999786376953,25.799999237060547
1759864130066905000,6.574905029296875,-166.8000030517578,101.0999984741211,25.68000030517578
1759864130076904000,6.584904052734375,-166.8000030517578,101.33999633789062,25.739999771118164
1759864130086902800,6.59490283203125,-166.67999267578125,101.0999984741211,25.5
1759864130096901600,6.604901611328125,-166.13999938964844,101.4000015258789,25.079999923706055
1759864130106900500,6.614900390625,-166.1999969482422,101.33999633789062,24.84000015258789
1759864130116899300,6.6248994140625,-165.83999633789062,101.0999984741211,24.719999313354492
1759864130126898000,6.63489794921875,-166.1999969482422,100.86000061035156,24.779998779296875
1759864130136896800,6.644896728515625,-166.1999969482422,101.04000091552734,25.439998626708984
1759864130146895400,6.654895263671875,-166.37998962402344,101.04000091552734,25.979999542236328
1759864130156894200,6.664894287109375,-166.86000061035156,101.04000091552734,25.85999870300293
1759864130166892800,6.674892822265625,-166.739990234375,101.4000015258789,26.099998474121094
1759864130176892400,6.684892333984375,-166.97999572753906,100.79999542236328,25.260000228881836
1759864130186891800,6.694891845703125,-166.3199920654297,101.0999984741211,24.84000015258789
1759864130196890400,6.704890380859375,-166.25999450683594,101.15999603271484,25.139999389648438
1759864130206890000,6.714889892578125,-166.44000244140625,101.27999877929688,25.139999389648438
1759864130216888800,6.724888916015625,-166.01998901367188,101.69999694824219,25.5
1759864130226887700,6.7348876953125,-166.67999267578125,101.45999908447266,25.439998626708984
1759864130236886500,6.744886474609375,-166.8000030517578,101.5199966430664,24.959999084472656
1759864130246885400,6.754885498046875,-166.86000061035156,101.69999694824219,25.19999885559082
1759864130256884000,6.764884033203125,-166.739990234375,101.69999694824219,25.559999465942383
1759864130266883600,6.774883544921875,-166.739990234375,101.15999603271484,25.68000030517578
1759864130276882200,6.784882080078125,-166.3199920654297,101.04000091552734,25.799999237060547
1759864130286881000,6.794881103515625,-165.72000122070312,100.97999572753906,25.5
1759864130296879900,6.8048798828125,-165.72000122070312,100.91999816894531,25.260000228881836
1759864130306878500,6.81487841796875,-165.83999633789062,101.15999603271484,25.559999465942383
1759864130316877300,6.824877197265625,-166.55999755859375,101.33999633789062,25.85999870300293
1759864130326876000,6.8348759765625,-167.09999084472656,101.04000091552734,26.399999618530273
1759864130336874800,6.844874755859375,-167.63999938964844,101.27999877929688,26.459999084472656
1759864130346873600,6.85487353515625,-167.51998901367188,101.0999984741211,26.51999855041504
1759864130356872200,6.8648720703125,-167.09999084472656,100.68000030517578,26.51999855041504
1759864130366871000,6.87487109375,-166.8000030517578,100.73999786376953,26.099998474121094
1759864130376870000,6.884869873046875,-166.5,100.86000061035156,25.979999542236328
1759864130386868500,6.894868408203125,-166.37998962402344,101.63999938964844,25.85999870300293
1759864130396867300,6.904867431640625,-166.25999450683594,101.93999481201172,25.85999870300293
1759864130406866200,6.9148662109375,-166.3199920654297,101.81999969482422,26.099998474121094
1759864130416864800,6.92486474609375,-165.95999145507812,102.05999755859375,26.579999923706055
1759864130426863600,6.934863525390625,-165.66000366210938,101.69999694824219,26.279998779296875
1759864130436862200,6.9448623046875,-166.0800018310547,101.63999938964844,26.51999855041504
1759864130446861000,6.954861083984375,-166.0800018310547,101.63999938964844,26.51999855041504
1759864130456859600,6.964859619140625,-166.5,101.15999603271484,26.279998779296875
1759864130466858500,6.9748583984375,-166.97999572753906,100.68000030517578,26.399999618530273
1759864130476857300,6.984857421875,-166.86000061035156,100.55999755859375,26.099998474121094
1759864130486856000,6.99485595703125,-166.67999267578125,100.6199951171875,26.34000015258789
1759864130496854800,7.004854736328125,-166.44000244140625,100.73999786376953,26.15999984741211
1759864130506853600,7.014853515625,-166.25999450683594,100.55999755859375,25.920000076293945
1759864130516852200,7.024852294921875,-166.37998962402344,100.43999481201172,25.68000030517578
1759864130526851000,7.03485107421875,-166.5,100.55999755859375,25.01999855041504
1759864130536849700,7.044849609375,-166.6199951171875,100.31999969482422,24.899999618530273
1759864130546848500,7.0548486328125,-166.44000244140625,100.55999755859375,25.19999885559082
1759864130556847000,7.06484716796875,-166.13999938964844,100.68000030517578,24.959999084472656
1759864130566846000,7.074845947265625,-166.0800018310547,100.6199951171875,24.899999618530273
1759864130576844500,7.084844482421875,-165.95999145507812,100.31999969482422,24.65999984741211
1759864130586843100,7.094843017578125,-166.01998901367188,100.43999481201172,24
1759864130596842000,7.104842041015625,-166.0800018310547,100.55999755859375,24.479999542236328
1759864130606840800,7.1148408203125,-166.5,100.73999786376953,24.239999771118164
1759864130616839400,7.12483935546875,-166.55999755859375,100.55999755859375,24
1759864130626838300,7.13483837890625,-166.9199981689453,100.79999542236328,23.939998626708984
1759864130636837000,7.144837158203125,-166.55999755859375,100.86000061035156,23.459999084472656
1759864130646835700,7.154835693359375,-166.6199951171875,100.73999786376953,24
1759864130656834600,7.16483447265625,-166.6199951171875,100.91999816894531,24.65999984741211
1759864130666833200,7.174833251953125,-166.5,100.68000030517578,25.01999855041504
1759864130676832000,7.18483203125,-167.0399932861328,100.68000030517578,25.260000228881836
1759864130686830800,7.194830810546875,-166.44000244140625,100.37999725341797,24.53999900817871
1759864130696829400,7.204829345703125,-166.3199920654297,100.79999542236328,24.299999237060547
1759864130706828300,7.214828369140625,-166.37998962402344,100.86000061035156,24.299999237060547
1759864130716827000,7.224826904296875,-166.37998962402344,100.86000061035156,24.299999237060547
1759864130726825700,7.23482568359375,-166.55999755859375,100.97999572753906,25.01999855041504
1759864130736824600,7.244824462890625,-166.6199951171875,100.79999542236328,24.84000015258789
1759864130746823200,7.2548232421875,-166.37998962402344,101.04000091552734,24.959999084472656
1759864130756822000,7.264822021484375,-166.37998962402344,101.45999908447266,24.84000015258789
1759864130766820900,7.27482080078125,-165.83999633789062,101.75999450683594,24.53999900817871
1759864130776819500,7.2848193359375,-166.13999938964844,102.1199951171875,24.779998779296875
1759864130786818300,7.294818359375,-166.3199920654297,102.23999786376953,24.84000015258789
1759864130796817200,7.304817138671875,-165.77999877929688,102.1199951171875,24.959999084472656
1759864130806815700,7.314815673828125,-166.6199951171875,102.36000061035156,25.01999855041504
1759864130816814600,7.324814697265625,-166.0800018310547,102.77999877929688,24.719999313354492
1759864130826813200,7.334813232421875,-166.25999450683594,102.77999877929688,24.65999984741211
1759864130836812000,7.34481201171875,-166.67999267578125,102.89999389648438,24.65999984741211
1759864130846811000,7.354810791015625,-166.6199951171875,102.5999984741211,24.899999618530273
1759864130856809700,7.364809814453125,-166.67999267578125,102.1199951171875,25.19999885559082
1759864130866808600,7.37480859375,-166.25999450683594,102.1199951171875,25.31999969482422
1759864130876807400,7.384807373046875,-166.13999938964844,101.57999420166016,25.5
1759864130886805500,7.394805419921875,-165.83999633789062,101.4000015258789,25.5
1759864130906802400,7.414802490234375,-166.739990234375,101.33999633789062,25.559999465942383
1759864130916801300,7.42480126953125,-166.8000030517578,101.81999969482422,25.559999465942383
1759864130926799600,7.434799560546875,-167.0399932861328,101.87999725341797,25.85999870300293
1759864130936797700,7.444797607421875,-167.16000366210938,102.05999755859375,26.03999900817871
1759864130946796000,7.454796142578125,-166.8000030517578,101.93999481201172,25.619998931884766
1759864130956795000,7.464794921875,-166.9199981689453,101.93999481201172,25.439998626708984
1759864130966793700,7.474793701171875,-166.5,102.1199951171875,25.19999885559082
1759864130976792600,7.48479248046875,-166.44000244140625,101.63999938964844,24.959999084472656
1759864130986791400,7.49479150390625,-166.55999755859375,101.45999908447266,25.920000076293945
1759864130996790300,7.504790283203125,-166.3199920654297,101.4000015258789,26.099998474121094
1759864131006789000,7.5147890625,-166.67999267578125,101.27999877929688,26.099998474121094
1759864131016788000,7.5247880859375,-166.1999969482422,102.1199951171875,26.34000015258789
1759864131026786800,7.534786865234375,-166.3199920654297,102.54000091552734,25.68000030517578
1759864131036785700,7.54478564453125,-166.86000061035156,102.1199951171875,25.979999542236328
1759864131056783400,7.564783447265625,-167.51998901367188,101.22000122070312,26.099998474121094
1759864131066782200,7.5747822265625,-167.5800018310547,101.04000091552734,26.219999313354492
1759864131076780300,7.5847802734375,-167.63999938964844,101.04000091552734,25.920000076293945
1759864131086779100,7.594779052734375,-168,101.04000091552734,26.399999618530273
1759864131096778000,7.604778076171875,-168,101.0999984741211,26.639999389648438
1759864131106776800,7.61477685546875,-167.63999938964844,100.73999786376953,27
1759864131116775700,7.624775634765625,-167.0399932861328,100.97999572753906,26.8799991607666
1759864131126774500,7.6347744140625,-166.9199981689453,101.27999877929688,26.219999313354492
1759864131136773400,7.6447734375,-166.3199920654297,101.5199966430664,25.979999542236328
1759864131146772200,7.654772216796875,-166.8000030517578,101.5199966430664,25.619998931884766
1759864131156771000,7.66477099609375,-167.39999389648438,101.63999938964844,25.920000076293945
1759864131166770000,7.67477001953125,-166.97999572753906,101.5199966430664,25.979999542236328
1759864131176768500,7.6847685546875,-167.39999389648438,101.0999984741211,26.279998779296875
1759864131186768000,7.694767822265625,-167.16000366210938,101.0999984741211,26.51999855041504
1759864131196767500,7.704767578125,-166.86000061035156,100.68000030517578,26.03999900817871
1759864131206766300,7.714766357421875,-167.0399932861328,100.6199951171875,26.099998474121094
1759864131216765000,7.724764892578125,-167.09999084472656,101.04000091552734,25.68000030517578
1759864131226764000,7.734763916015625,-167.22000122070312,101.4000015258789,25.5
1759864131236763600,7.744763671875,-166.97999572753906,101.5199966430664,25.68000030517578
1759864131246763000,7.754762939453125,-167.0399932861328,101.81999969482422,26.03999900817871
1759864131256761900,7.764761962890625,-167.27999877929688,101.75999450683594,25.85999870300293
1759864131266760700,7.7747607421875,-167.39999389648438,101.87999725341797,25.739999771118164
1759864131276759300,7.78475927734375,-167.45999145507812,102.18000030517578,25.68000030517578
1759864131286758100,7.794758056640625,-167.45999145507812,102.1199951171875,25.3799991607666
1759864131296757000,7.804757080078125,-167.39999389648438,102.1199951171875,25.19999885559082
1759864131306755600,7.814755615234375,-166.86000061035156,101.87999725341797,25.01999855041504
1759864131316754400,7.82475439453125,-167.22000122070312,102.1199951171875,25.01999855041504
1759864131326753300,7.834753173828125,-167.51998901367188,102.1199951171875,24.65999984741211
1759864131336751900,7.844751953125,-167.63999938964844,102.18000030517578,24.779998779296875
1759864131346750700,7.854750732421875,-167.63999938964844,102.47999572753906,25.01999855041504
1759864131356749300,7.864749267578125,-167.45999145507812,102,25.19999885559082
1759864131366748200,7.874748046875,-166.97999572753906,102.23999786376953,25.439998626708984
1759864131376747500,7.88474755859375,-166.44000244140625,102.36000061035156,25.439998626708984
1759864131386746400,7.894746337890625,-166.5,102.36000061035156,25.68000030517578
1759864131396745200,7.9047451171875,-166.25999450683594,102.1199951171875,25.68000030517578
1759864131406743800,7.914743896484375,-165.95999145507812,101.69999694824219,25.439998626708984
1759864131416742700,7.92474267578125,-166.01998901367188,101.4000015258789,25.5
1759864131426741500,7.934741455078125,-166.1999969482422,100.97999572753906,25.31999969482422
1759864131436773400,7.9447734375,-166.25999450683594,101.45999908447266,25.139999389648438
1759864131446805500,7.954805419921875,-167.0399932861328,101.63999938964844,25.31999969482422
1759864131456837600,7.964837646484375,-167.33999633789062,101.75999450683594,25.559999465942383
1759864131466869800,7.974869873046875,-167.39999389648438,102.05999755859375,25.31999969482422
1759864131476901600,7.984901611328125,-167.6999969482422,102.1199951171875,25.559999465942383
1759864131486933800,7.994933837890625,-167.22000122070312,102.47999572753906,25.739999771118164
1759864131496966000,8.0049658203125,-167.39999389648438,102.77999877929688,25.979999542236328
1759864131506998000,8.014998046875,-167.27999877929688,102.23999786376953,26.34000015258789
1759864131517030100,8.025030029296875,-167.0399932861328,102.18000030517578,26.099998474121094
1759864131527062300,8.035062255859375,-167.51998901367188,101.57999420166016,25.85999870300293
1759864131537094400,8.045094482421876,-167.0399932861328,101.81999969482422,25.5
1759864131547126300,8.055126220703125,-166.86000061035156,102.41999816894531,25.439998626708984
1759864131557158400,8.065158447265626,-166.97999572753906,102.29999542236328,25.3799991607666
1759864131567190500,8.0751904296875,-166.67999267578125,103.19999694824219,25.079999923706055
1759864131577222400,8.085222412109376,-166.86000061035156,102.95999908447266,25.19999885559082
1759864131587254500,8.095254638671875,-166.9199981689453,102.83999633789062,24.779998779296875
1759864131597286700,8.10528662109375,-166.67999267578125,103.31999969482422,25.079999923706055
1759864131607318500,8.115318603515625,-166.739990234375,102.83999633789062,25.31999969482422
1759864131617350700,8.1253505859375,-166.6199951171875,102.54000091552734,24.959999084472656
1759864131627382800,8.1353828125,-166.86000061035156,102.83999633789062,25.079999923706055
1759864131637414700,8.14541455078125,-167.33999633789062,102.77999877929688,25.01999855041504
1759864131647446800,8.15544677734375,-167.22000122070312,102.95999908447266,25.079999923706055
1759864131657479000,8.16547900390625,-167.09999084472656,103.37999725341797,25.5
1759864131667511000,8.175510986328124,-167.0399932861328,103.37999725341797,25.19999885559082
1759864131677543000,8.18554296875,-166.55999755859375,103.73999786376953,24.779998779296875
1759864131687575000,8.195574951171874,-166.8000030517578,103.91999816894531,24.53999900817871
1759864131697607200,8.205607177734375,-166.97999572753906,104.0999984741211,24.600000381469727
1759864131707639300,8.215639404296875,-167.0399932861328,104.15999603271484,24.959999084472656
1759864131717671400,8.22567138671875,-167.09999084472656,103.55999755859375,24.899999618530273
1759864131727703300,8.235703369140625,-166.9199981689453,103.55999755859375,24.65999984741211
1759864131737702100,8.2457021484375,-167.0399932861328,103.73999786376953,24.35999870300293
1759864131747701000,8.255700927734376,-167.0399932861328,103.97999572753906,24.35999870300293
1759864131757699600,8.265699462890625,-166.8000030517578,104.22000122070312,24.719999313354492
1759864131767698400,8.275698486328125,-166.6199951171875,104.04000091552734,24.719999313354492
1759864131777697000,8.285697021484374,-166.5,103.79999542236328,24.779998779296875
1759864131787695900,8.29569580078125,-166.1999969482422,103.6199951171875,24.35999870300293
1759864131797694700,8.30569482421875,-166.6199951171875,103.73999786376953,24.35999870300293
1759864131807693600,8.315693603515625,-166.97999572753906,103.91999816894531,24.53999900817871
1759864131817692200,8.325692138671876,-166.8000030517578,103.97999572753906,24.420000076293945
1759864131827691000,8.33569091796875,-167.09999084472656,103.73999786376953,24.479999542236328
1759864131837689600,8.345689697265625,-166.739990234375,103.79999542236328,24.299999237060547
1759864131847688400,8.3556884765625,-166.44000244140625,103.91999816894531,24.18000030517578
1759864131857687300,8.365687255859376,-166.67999267578125,103.79999542236328,24.479999542236328
1759864131867686000,8.375685791015625,-166.6199951171875,104.04000091552734,24.600000381469727
1759864131877684700,8.385684814453125,-166.37998962402344,104.04000091552734,24.35999870300293
1759864131887682800,8.395682861328124,-166.37998962402344,103.97999572753906,24.53999900817871
1759864131897680600,8.4056806640625,-166.0800018310547,104.0999984741211,24.53999900817871
1759864131907678700,8.4156787109375,-166.0800018310547,103.91999816894531,24.719999313354492
1759864131917677600,8.425677490234374,-166.44000244140625,103.0199966430664,24.84000015258789
1759864131927676200,8.43567626953125,-166.25999450683594,103.0199966430664,24.899999618530273
1759864131937674500,8.445674560546875,-166.3199920654297,103.0199966430664,24.35999870300293
1759864131947673300,8.45567333984375,-166.0800018310547,103.13999938964844,24.119998931884766
1759864131957672400,8.46567236328125,-166.25999450683594,103.6199951171875,24.239999771118164
1759864131967671600,8.475671630859376,-166.55999755859375,103.31999969482422,24.35999870300293
1759864131977670700,8.485670654296875,-166.6199951171875,103.13999938964844,24.899999618530273
1759864131987669500,8.49566943359375,-166.739990234375,103.0199966430664,25.139999389648438
1759864131997668600,8.505668701171874,-166.739990234375,103.37999725341797,25.68000030517578
1759864132007667700,8.515667724609376,-166.5,103.86000061035156,25.979999542236328
1759864132017666800,8.525666748046875,-166.739990234375,104.04000091552734,25.979999542236328
1759864132027666000,8.535666015625,-166.9199981689453,103.91999816894531,25.920000076293945
1759864132037664800,8.545664794921874,-166.739990234375,103.55999755859375,26.099998474121094
1759864132047663900,8.555663818359376,-167.39999389648438,103.19999694824219,26.219999313354492
1759864132057662700,8.565662841796875,-167.6999969482422,102.72000122070312,26.279998779296875
1759864132067661800,8.575661865234375,-167.63999938964844,102.72000122070312,26.279998779296875
1759864132077660700,8.58566064453125,-167.94000244140625,102.77999877929688,25.979999542236328
1759864132087659800,8.59565966796875,-167.39999389648438,102.41999816894531,25.799999237060547
1759864132097659000,8.605658935546876,-167.27999877929688,102.65999603271484,25.920000076293945
1759864132107658000,8.615657958984375,-166.97999572753906,102.41999816894531,26.399999618530273
1759864132117656800,8.62565673828125,-167.09999084472656,102.41999816894531,26.51999855041504
1759864132127656000,8.635656005859374,-167.27999877929688,102.89999389648438,26.34000015258789
1759864132137655000,8.645655029296876,-167.27999877929688,103.07999420166016,26.279998779296875
1759864132147654100,8.655654052734375,-167.63999938964844,103.31999969482422,25.85999870300293
1759864132157653200,8.6656533203125,-167.39999389648438,103.37999725341797,26.219999313354492
1759864132167652400,8.67565234375,-167.0399932861328,103.13999938964844,26.15999984741211
1759864132177651200,8.685651123046876,-167.27999877929688,102.89999389648438,26.219999313354492
1759864132187651000,8.695651123046876,-167.45999145507812,102.89999389648438,26.15999984741211
1759864132197651000,8.70565087890625,-167.63999938964844,103.19999694824219,25.799999237060547
1759864132207650800,8.71565087890625,-167.94000244140625,103.5,25.619998931884766
1759864132217649700,8.725649658203125,-167.75999450683594,103.97999572753906,25.799999237060547
1759864132227648800,8.735648681640624,-168,103.97999572753906,26.099998474121094
1759864132237647600,8.745647705078126,-167.51998901367188,103.68000030517578,26.03999900817871
1759864132247646000,8.75564599609375,-167.51998901367188,103.6199951171875,26.15999984741211
1759864132257643800,8.765643798828124,-167.45999145507812,103.5,25.559999465942383
1759864132267641900,8.775641845703126,-166.739990234375,103.25999450683594,25.3799991607666
1759864132277640700,8.785640625,-166.9199981689453,103.19999694824219,25.01999855041504
1759864132287639300,8.795639404296875,-167.27999877929688,103.13999938964844,25.19999885559082
1759864132297638100,8.80563818359375,-167.27999877929688,102.5999984741211,25.3799991607666
1759864132307636700,8.81563671875,-167.33999633789062,103.07999420166016,25.559999465942383
1759864132317635600,8.825635498046875,-167.45999145507812,102.83999633789062,25.559999465942383
1759864132327634400,8.835634521484375,-167.27999877929688,102.72000122070312,25.739999771118164
1759864132337633000,8.845633056640626,-166.9199981689453,102.77999877929688,25.5
1759864132347631600,8.855631591796875,-167.0399932861328,102.29999542236328,25.31999969482422
1759864132357630700,8.865630615234375,-167.0399932861328,102.36000061035156,25.31999969482422
1759864132367629600,8.875629638671874,-167.09999084472656,101.93999481201172,25.139999389648438
1759864132377628400,8.88562841796875,-167.09999084472656,102,25.139999389648438
1759864132387627000,8.895626953125,-166.739990234375,101.75999450683594,25.260000228881836
1759864132397625900,8.9056259765625,-166.55999755859375,101.45999908447266,25.619998931884766
1759864132407624700,8.915624755859374,-166.8000030517578,101.22000122070312,25.439998626708984
1759864132417622500,8.92562255859375,-167.22000122070312,101.15999603271484,25.559999465942383
1759864132427621400,8.935621337890625,-167.8199920654297,101.57999420166016,25.559999465942383
1759864132437620200,8.9456201171875,-167.6999969482422,102.18000030517578,25.19999885559082
1759864132447618800,8.955618896484374,-166.9199981689453,102.41999816894531,25.19999885559082
1759864132457617700,8.96561767578125,-166.67999267578125,102.23999786376953,25.559999465942383
1759864132467616500,8.975616455078125,-166.44000244140625,102.1199951171875,25.260000228881836
1759864132477615000,8.985614990234374,-166.55999755859375,101.93999481201172,25.920000076293945
1759864132487614000,8.995614013671876,-166.97999572753906,101.75999450683594,25.85999870300293
1759864132497612500,9.005612548828125,-166.97999572753906,101.87999725341797,25.619998931884766
1759864132507611400,9.015611328125,-167.22000122070312,102.05999755859375,25.739999771118164
1759864132517610200,9.0256103515625,-167.0399932861328,102.54000091552734,25.01999855041504
1759864132527608800,9.03560888671875,-166.6199951171875,102.95999908447266,25.31999969482422
1759864132537608400,9.0456083984375,-166.86000061035156,103.07999420166016,25.19999885559082
1759864132547607800,9.05560791015625,-166.67999267578125,103.07999420166016,25.139999389648438
1759864132557607200,9.065607177734375,-167.0399932861328,102.89999389648438,25.439998626708984
1759864132567606500,9.0756064453125,-167.5800018310547,102.65999603271484,25.260000228881836
1759864132577605400,9.08560546875,-167.51998901367188,102.89999389648438,25.739999771118164
1759864132587604200,9.095604248046875,-167.5800018310547,102.5999984741211,26.219999313354492
1759864132597602800,9.105602783203125,-167.63999938964844,102.47999572753906,25.979999542236328
1759864132607601700,9.1156015625,-167.33999633789062,102.54000091552734,25.739999771118164
1759864132617600300,9.125600341796876,-167.16000366210938,102.1199951171875,25.19999885559082
1759864132627599000,9.13559912109375,-167.51998901367188,102.18000030517578,24.84000015258789
1759864132637598000,9.145597900390625,-167.75999450683594,101.5199966430664,24.65999984741211
1759864132647596500,9.155596435546874,-167.33999633789062,101.5199966430664,24.479999542236328
1759864132657595400,9.165595458984376,-167.5800018310547,101.63999938964844,24.600000381469727
1759864132667594200,9.17559423828125,-167.63999938964844,101.93999481201172,24.53999900817871
1759864132677592800,9.1855927734375,-166.9199981689453,102.05999755859375,24.779998779296875
1759864132687591700,9.195591796875,-167.45999145507812,101.93999481201172,24.719999313354492
1759864132697590300,9.20559033203125,-167.5800018310547,101.87999725341797,24.65999984741211
1759864132707589000,9.215589111328125,-167.33999633789062,101.81999969482422,24.239999771118164
1759864132717588500,9.22558837890625,-167.5800018310547,102.36000061035156,24.059999465942383
1759864132727587000,9.235587158203124,-166.97999572753906,102.47999572753906,24.059999465942383
1759864132737586000,9.2455859375,-166.5,102.77999877929688,23.8799991607666
1759864132747584500,9.25558447265625,-166.25999450683594,102.77999877929688,24.65999984741211
1759864132757583400,9.265583251953124,-166.13999938964844,102.89999389648438,24.53999900817871
1759864132767582000,9.27558203125,-166.55999755859375,103.07999420166016,24.719999313354492
1759864132777580800,9.285580810546875,-166.5,103.13999938964844,24.600000381469727
1759864132787579400,9.295579345703125,-166.5,103.13999938964844,24.18000030517578
1759864132807577000,9.3155771484375,-166.0800018310547,102.65999603271484,24.239999771118164
1759864132817575700,9.32557568359375,-166.13999938964844,102.83999633789062,24.059999465942383
1759864132827574500,9.335574462890625,-166.1999969482422,102.65999603271484,24.119998931884766
1759864132837573400,9.345573486328124,-166.3199920654297,102.72000122070312,24.18000030517578
1759864132847572000,9.355572021484376,-166.86000061035156,103.19999694824219,24.239999771118164
1759864132857570800,9.36557080078125,-167.45999145507812,103.19999694824219,24.420000076293945
1759864132867569400,9.3755693359375,-167.6999969482422,103.55999755859375,24.239999771118164
1759864132877568000,9.385568115234374,-167.8199920654297,103.73999786376953,24.420000076293945
1759864132887566600,9.395566650390625,-167.45999145507812,103.0199966430664,24.420000076293945
1759864132897565400,9.4055654296875,-167.09999084472656,102.72000122070312,24.719999313354492
1759864132907564300,9.415564208984375,-167.22000122070312,102.05999755859375,24.959999084472656
1759864132917563000,9.42556298828125,-167.09999084472656,101.57999420166016,24.959999084472656
1759864132927561700,9.435561767578125,-167.45999145507812,101.45999908447266,24.479999542236328
1759864132937560600,9.445560546875,-167.27999877929688,101.22000122070312,24.35999870300293
1759864132947559200,9.45555908203125,-167.22000122070312,101.22000122070312,24.18000030517578
1759864132957558000,9.46555810546875,-167.33999633789062,101.22000122070312,23.81999969482422
1759864132977555500,9.485555419921875,-167.33999633789062,100.68000030517578,24.35999870300293
1759864132987554300,9.49555419921875,-167.45999145507812,100.31999969482422,24.119998931884766
1759864132997553200,9.50555322265625,-167.22000122070312,99.77999877929688,24.059999465942383
1759864133007552000,9.515552001953125,-166.8000030517578,99.9000015258789,24.119998931884766
1759864133017550800,9.52555078125,-167.27999877929688,100.0199966430664,23.399999618530273
1759864133027549700,9.5355498046875,-167.39999389648438,99.95999908447266,23.760000228881836
1759864133037548500,9.545548583984376,-167.16000366210938,100.07999420166016,23.69999885559082
1759864133047547600,9.555547607421875,-167.45999145507812,99.95999908447266,24.239999771118164
1759864133057546500,9.56554638671875,-166.97999572753906,99.83999633789062,24.84000015258789
1759864133067545300,9.57554541015625,-166.739990234375,99.77999877929688,24.600000381469727
1759864133077544200,9.585544189453126,-167.27999877929688,100.0199966430664,24.53999900817871
1759864133087543000,9.59554296875,-167.45999145507812,99.72000122070312,24.119998931884766
1759864133097542000,9.6055419921875,-167.6999969482422,99.41999816894531,23.8799991607666
1759864133107540700,9.615540771484374,-168.05999755859375,100.19999694824219,24.119998931884766
1759864133117539600,9.62553955078125,-168.1199951171875,100.31999969482422,24.18000030517578
1759864133127538400,9.635538330078125,-168.1199951171875,100.6199951171875,24.18000030517578
1759864133137537300,9.645537353515625,-168,100.68000030517578,24.65999984741211
1759864133147536100,9.6555361328125,-167.8199920654297,100.86000061035156,24.119998931884766
1759864133157535000,9.665534912109376,-168,100.79999542236328,24.119998931884766
1759864133167533800,9.675533935546875,-168.05999755859375,100.97999572753906,23.939998626708984
1759864133177533200,9.685533203125,-168.59999084472656,101.57999420166016,23.8799991607666
1759864133207527400,9.71552734375,-167.63999938964844,101.69999694824219,23.8799991607666
1759864133217526300,9.7255263671875,-167.22000122070312,101.33999633789062,23.81999969482422
1759864133227525000,9.735525146484376,-168.05999755859375,101.33999633789062,23.760000228881836
1759864133237524000,9.74552392578125,-168.17999267578125,101.04000091552734,23.760000228881836
1759864133247522600,9.7555224609375,-168.05999755859375,101.04000091552734,23.939998626708984
1759864133257521400,9.765521484375,-168.1199951171875,101.27999877929688,23.69999885559082
1759864133267520300,9.775520263671876,-167.87998962402344,100.79999542236328,23.69999885559082
1759864133277519000,9.78551904296875,-168.1199951171875,100.86000061035156,24.119998931884766
1759864133287518000,9.79551806640625,-168.239990234375,100.79999542236328,23.8799991607666
1759864133297516800,9.805516845703124,-168,100.6199951171875,24.119998931884766
1759864133307515600,9.815515625,-168.05999755859375,100.6199951171875,24
1759864133317514200,9.82551416015625,-167.63999938964844,99.95999908447266,23.8799991607666
1759864133327513000,9.83551318359375,-167.45999145507812,99.83999633789062,23.81999969482422
1759864133337511700,9.84551171875,-167.63999938964844,99.29999542236328,23.639999389648438
1759864133347510500,9.855510498046876,-167.63999938964844,99.47999572753906,23.81999969482422
1759864133357509000,9.865509033203125,-167.6999969482422,100.25999450683594,23.34000015258789
1759864133367508000,9.875508056640625,-167.94000244140625,100.5,23.51999855041504
1759864133377506600,9.885506591796876,-167.94000244140625,100.97999572753906,23.459999084472656
1759864133387505000,9.8955048828125,-167.51998901367188,101.04000091552734,23.399999618530273
1759864133397503500,9.90550341796875,-167.6999969482422,100.6199951171875,24.119998931884766
1759864133407502300,9.91550244140625,-167.6999969482422,100.31999969482422,23.579999923706055
1759864133417501000,9.9255009765625,-167.75999450683594,100.55999755859375,23.459999084472656
1759864133427499000,9.9354990234375,-167.8199920654297,100.73999786376953,22.979999542236328
1759864133437497000,9.9454970703125,-167.8199920654297,100.91999816894531,22.439998626708984
1759864133447496000,9.955495849609376,-167.22000122070312,101.4000015258789,22.439998626708984
1759864133457494500,9.96549462890625,-166.86000061035156,101.4000015258789,22.559999465942383
1759864133467493400,9.975493408203125,-166.86000061035156,101.57999420166016,22.920000076293945
1759864133477492000,9.985491943359374,-166.44000244140625,101.5199966430664,22.85999870300293
1759864133487491600,9.99549169921875,-166.55999755859375,101.4000015258789,23.279998779296875
1759864133497491000,10.005490966796875,-166.86000061035156,101.15999603271484,22.920000076293945
1759864133507490600,10.015490478515625,-167.16000366210938,101.15999603271484,22.619998931884766
1759864133517489200,10.0254892578125,-167.63999938964844,101.27999877929688,22.559999465942383
1759864133527488000,10.035488037109374,-167.87998962402344,100.68000030517578,22.079999923706055
1759864133537486800,10.04548681640625,-168.05999755859375,100.55999755859375,22.5
1759864133547485700,10.055485595703125,-167.94000244140625,99.77999877929688,22.439998626708984
1759864133557484500,10.065484619140625,-167.94000244140625,99.65999603271484,22.19999885559082
1759864133567483400,10.0754833984375,-168.239990234375,99.9000015258789,22.439998626708984
1759864133577482000,10.08548193359375,-168.1199951171875,99.41999816894531,22.3799991607666
1759864133587480800,10.095480712890625,-168.4199981689453,99.5999984741211,23.03999900817871
1759864133597479400,10.1054794921875,-168.4199981689453,99.72000122070312,23.03999900817871
1759864133607478300,10.115478271484376,-167.94000244140625,99.95999908447266,23.15999984741211
1759864133617476900,10.125476806640625,-168.3000030517578,100.55999755859375,23.15999984741211
1759864133627475700,10.135475830078125,-168.05999755859375,100.91999816894531,22.31999969482422
1759864133637474600,10.145474609375,-168,100.86000061035156,22.3799991607666
1759864133647473200,10.15547314453125,-168.36000061035156,100.73999786376953,22.020000457763672
1759864133657472000,10.165471923828125,-168.1199951171875,100.43999481201172,22.020000457763672
1759864133667470800,10.175470947265625,-168.4199981689453,100.19999694824219,22.139999389648438
1759864133677469400,10.185469482421874,-168.5399932861328,100.0199966430664,22.31999969482422
1759864133687468800,10.19546875,-168.72000122070312,100.07999420166016,22.619998931884766
1759864133697467600,10.205467529296875,-168.59999084472656,100.19999694824219,22.68000030517578
1759864133707466200,10.21546630859375,-168.83999633789062,100.13999938964844,22.68000030517578
1759864133717465000,10.225465087890624,-168.47999572753906,100.0199966430664,23.100000381469727
1759864133727464400,10.23546435546875,-167.63999938964844,99.95999908447266,22.799999237060547
1759864133737463800,10.2454638671875,-167.63999938964844,100.0199966430664,22.559999465942383
1759864133747462700,10.255462646484375,-167.22000122070312,100.31999969482422,22.3799991607666
1759864133757461200,10.265461181640624,-167.0399932861328,100.97999572753906,22.020000457763672
1759864133767460000,10.275460205078126,-167.39999389648438,101.5199966430664,21.959999084472656
1759864133777458700,10.285458740234375,-167.51998901367188,101.5199966430664,21.84000015258789
1759864133787457500,10.29545751953125,-167.75999450683594,101.69999694824219,21.719999313354492
1759864133797456400,10.305456298828124,-168.17999267578125,101.4000015258789,21.53999900817871
1759864133807455000,10.315455078125,-168.5399932861328,100.97999572753906,21.719999313354492
1759864133817453600,10.32545361328125,-168.4199981689453,100.91999816894531,22.079999923706055
1759864133827452400,10.335452392578125,-168.36000061035156,100.31999969482422,22.020000457763672
1759864133837451000,10.345450927734374,-168.239990234375,100.25999450683594,22.020000457763672
1759864133847449900,10.355449951171876,-168.05999755859375,100.6199951171875,21.84000015258789
1759864133857448700,10.36544873046875,-168.239990234375,100.91999816894531,21.53999900817871
1759864133867447300,10.375447265625,-168.3000030517578,101.4000015258789,21.53999900817871
1759864133877446100,10.385446044921874,-168.72000122070312,101.87999725341797,21.299999237060547
1759864133887445000,10.395445068359376,-169.13999938964844,101.87999725341797,21.420000076293945
1759864133897443600,10.405443603515625,-168.59999084472656,101.75999450683594,21.299999237060547
1759864133907442400,10.4154423828125,-168.5399932861328,101.87999725341797,21.65999984741211
1759864133917441300,10.425441162109376,-168.4199981689453,101.63999938964844,21.899999618530273
1759864133927440000,10.43543994140625,-167.87998962402344,101.33999633789062,21.959999084472656
1759864133937438700,10.445438720703125,-168.17999267578125,101.69999694824219,21.35999870300293
1759864133947437300,10.455437255859374,-168.36000061035156,101.5199966430664,21.18000030517578
1759864133957436200,10.465436279296876,-167.94000244140625,101.0999984741211,21.18000030517578
1759864133967435000,10.47543505859375,-168,101.0999984741211,20.8799991607666
1759864133977433600,10.48543359375,-167.75999450683594,100.6199951171875,21.35999870300293
1759864133987432400,10.495432373046874,-167.45999145507812,100.31999969482422,21.299999237060547
1759864133997431300,10.505431396484376,-167.6999969482422,100.68000030517578,21.239999771118164
1759864134007430000,10.515429931640625,-167.45999145507812,100.68000030517578,21.059999465942383
1759864134017428700,10.5254287109375,-167.6999969482422,100.6199951171875,21.239999771118164
1759864134027427600,10.535427490234374,-167.45999145507812,100.86000061035156,20.69999885559082
1759864134037426400,10.545426513671876,-167.51998901367188,100.19999694824219,20.459999084472656
1759864134047425300,10.55542529296875,-167.94000244140625,99.83999633789062,20.279998779296875
1759864134057424100,10.565424072265625,-168.17999267578125,99.41999816894531,20.279998779296875
1759864134067423000,10.575423095703124,-168.59999084472656,98.63999938964844,20.459999084472656
1759864134077422000,10.585422119140626,-168.47999572753906,98.4000015258789,20.520000457763672
1759864134097420000,10.605419921875,-167.51998901367188,97.79999542236328,20.520000457763672
1759864134107419100,10.615419189453124,-166.86000061035156,97.97999572753906,20.579999923706055
1759864134117418200,10.625418212890626,-166.97999572753906,98.0999984741211,20.279998779296875
1759864134127417300,10.635417236328125,-167.22000122070312,98.33999633789062,19.85999870300293
1759864134137416400,10.64541650390625,-167.22000122070312,98.4000015258789,19.619998931884766
1759864134147415600,10.65541552734375,-167.63999938964844,98.57999420166016,19.439998626708984
1759864134157414700,10.66541455078125,-167.5800018310547,98.93999481201172,19.559999465942383
1759864134167413800,10.675413818359376,-167.5800018310547,99.05999755859375,19.920000076293945
1759864134177412900,10.685412841796875,-167.39999389648438,99.1199951171875,19.739999771118164
1759864134187412000,10.695411865234375,-167.22000122070312,99.05999755859375,19.68000030517578
1759864134197410300,10.705410400390624,-166.9199981689453,98.75999450683594,19.739999771118164
1759864134207408400,10.715408447265625,-166.97999572753906,99.05999755859375,19.5
1759864134217406700,10.72540673828125,-167.27999877929688,98.93999481201172,19.920000076293945
1759864134227404800,10.73540478515625,-167.16000366210938,99.05999755859375,20.100000381469727
1759864134237404200,10.745404052734376,-166.9199981689453,99.41999816894531,20.100000381469727
1759864134247403300,10.7554033203125,-167.22000122070312,98.57999420166016,20.279998779296875
1759864134257401900,10.76540185546875,-167.0399932861328,98.93999481201172,19.979999542236328
1759864134267401000,10.77540087890625,-166.97999572753906,98.75999450683594,19.739999771118164
1759864134277400000,10.785400146484376,-167.39999389648438,98.45999908447266,19.5
1759864134287399200,10.795399169921875,-167.63999938964844,99.41999816894531,19.31999969482422
1759864134297398000,10.80539794921875,-167.8199920654297,99.36000061035156,19.19999885559082
1759864134307397000,10.815397216796875,-168.1199951171875,99.77999877929688,19.260000228881836
1759864134317396200,10.825396240234374,-168.1199951171875,99.72000122070312,19.260000228881836
1759864134327395300,10.835395263671876,-167.5800018310547,99.54000091552734,19.139999389648438
1759864134337394400,10.84539453125,-167.39999389648438,99.65999603271484,19.3799991607666
1759864134347393300,10.855393310546875,-167.45999145507812,99.47999572753906,19.739999771118164
1759864134357392100,10.86539208984375,-167.51998901367188,99.9000015258789,19.920000076293945
1759864134367391000,10.875390869140626,-167.6999969482422,99.72000122070312,20.459999084472656
1759864134377389800,10.885389892578125,-167.5800018310547,99.77999877929688,20.15999984741211
1759864134387388200,10.89538818359375,-167.39999389648438,99.54000091552734,19.559999465942383
1759864134397386800,10.90538671875,-167.0399932861328,99.29999542236328,19.079999923706055
1759864134407385600,10.915385498046875,-166.6199951171875,99.83999633789062,18.420000076293945
1759864134417384400,10.925384521484375,-166.6199951171875,99.72000122070312,18.239999771118164
1759864134427383000,10.935383056640624,-166.97999572753906,99.83999633789062,18.059999465942383
1759864134437382000,10.9453818359375,-166.97999572753906,100.43999481201172,18
1759864134447380500,10.95538037109375,-167.16000366210938,100.19999694824219,17.760000228881836
1759864134457379300,10.96537939453125,-167.16000366210938,100.31999969482422,18.059999465942383
1759864134467378000,10.9753779296875,-166.8000030517578,100.25999450683594,18.18000030517578
1759864134477376800,10.985376708984376,-166.86000061035156,100.43999481201172,18.299999237060547
1759864134487375600,10.995375732421875,-167.39999389648438,100.5,19.020000457763672
1759864134497375000,11.005375,-167.6999969482422,100.37999725341797,19.020000457763672
1759864134507374600,11.01537451171875,-167.33999633789062,100.86000061035156,19.3799991607666
1759864134517374200,11.025374267578124,-167.39999389648438,100.86000061035156,19.139999389648438
1759864134527373800,11.035373779296876,-167.22000122070312,100.91999816894531,18.959999084472656
1759864134537372400,11.045372314453125,-166.97999572753906,101.04000091552734,18.84000015258789
1759864134547371000,11.05537109375,-167.39999389648438,100.97999572753906,18.719999313354492
1759864134557370600,11.06537060546875,-167.33999633789062,101.15999603271484,19.020000457763672
1759864134567369200,11.075369140625,-167.09999084472656,100.91999816894531,19.19999885559082
1759864134577368000,11.0853681640625,-167.0399932861328,101.15999603271484,19.68000030517578
1759864134587366700,11.09536669921875,-167.27999877929688,101.15999603271484,19.619998931884766
1759864134597365500,11.105365478515624,-167.16000366210938,100.79999542236328,20.03999900817871
1759864134607364400,11.1153642578125,-167.27999877929688,101.22000122070312,19.619998931884766
1759864134617363000,11.125363037109375,-167.51998901367188,101.27999877929688,18.84000015258789
1759864134627361800,11.13536181640625,-167.39999389648438,101.33999633789062,18.899999618530273
1759864134637360600,11.145360595703124,-167.8199920654297,100.73999786376953,18.420000076293945
1759864134647359200,11.155359130859376,-167.87998962402344,100.6199951171875,18.84000015258789
1759864134657358000,11.165358154296875,-167.75999450683594,100.07999420166016,19.079999923706055
1759864134667357000,11.17535693359375,-167.87998962402344,99.54000091552734,19.139999389648438
1759864134677355500,11.18535546875,-167.45999145507812,99.54000091552734,19.31999969482422
1759864134687355100,11.195355224609376,-167.51998901367188,99.23999786376953,19.19999885559082
1759864134697353700,11.205353759765625,-167.33999633789062,99.47999572753906,19.559999465942383
1759864134707352600,11.2153525390625,-166.9199981689453,99.72000122070312,19.5
1759864134717351200,11.22535107421875,-166.6199951171875,99.36000061035156,19.559999465942383
1759864134727350000,11.23535009765625,-166.5,99.29999542236328,19.559999465942383
1759864134737348900,11.245348876953125,-166.8000030517578,99.1199951171875,19.19999885559082
1759864134747347500,11.255347412109375,-166.8000030517578,99.18000030517578,19.31999969482422
1759864134757346300,11.26534619140625,-167.33999633789062,99.41999816894531,18.65999984741211
1759864134767345000,11.275344970703125,-167.51998901367188,99.29999542236328,18.65999984741211
1759864134777343700,11.28534375,-167.09999084472656,99.1199951171875,18.84000015258789
1759864134787342600,11.295342529296875,-167.51998901367188,99,18.18000030517578
1759864134797341200,11.305341064453126,-167.0399932861328,99.54000091552734,18.600000381469727
1759864134807339800,11.31533984375,-166.739990234375,99.47999572753906,18.299999237060547
1759864134817338600,11.325338623046875,-166.5,99.83999633789062,18.059999465942383
1759864134827337500,11.33533740234375,-166.0800018310547,99.47999572753906,18.299999237060547
1759864134837336000,11.345336181640626,-166.44000244140625,98.63999938964844,17.940000534057617
1759864134847334700,11.355334716796875,-166.37998962402344,98.57999420166016,17.69999885559082
1759864134857333500,11.36533349609375,-166.37998962402344,97.86000061035156,17.579999923706055
1759864134867332000,11.37533203125,-166.8000030517578,97.6199951171875,17.34000015258789
1759864134877331000,11.3853310546875,-166.37998962402344,97.73999786376953,17.279998779296875
1759864134887329800,11.395329833984375,-166.67999267578125,97.79999542236328,17.520000457763672
1759864134897328400,11.405328369140625,-167.27999877929688,97.91999816894531,17.34000015258789
1759864134907327200,11.4153271484375,-167.0399932861328,98.22000122070312,17.69999885559082
1759864134917326000,11.425326171875,-167.39999389648438,98.45999908447266,17.8799991607666
1759864134927324700,11.43532470703125,-167.45999145507812,99,17.639999389648438
1759864134937323500,11.445323486328125,-166.9199981689453,99.1199951171875,17.940000534057617
1759864134947322400,11.455322265625,-167.45999145507812,99.36000061035156,17.219999313354492
1759864134957321000,11.465321044921875,-167.09999084472656,99.1199951171875,17.459999084472656
1759864134967319800,11.47531982421875,-167.09999084472656,98.45999908447266,17.579999923706055
1759864134977318400,11.485318359375,-167.33999633789062,97.97999572753906,17.69999885559082
1759864134987317200,11.495317138671876,-167.27999877929688,97.86000061035156,18.420000076293945
1759864134997316000,11.505316162109375,-167.39999389648438,98.22000122070312,18.479999542236328
1759864135007314700,11.515314697265625,-167.39999389648438,98.0999984741211,18.719999313354492
1759864135017313500,11.5253134765625,-167.16000366210938,98.0999984741211,18.53999900817871
1759864135037311000,11.54531103515625,-167.0399932861328,97.86000061035156,18.18000030517578
1759864135047309800,11.555309814453125,-166.739990234375,97.68000030517578,18
1759864135057308400,11.565308349609374,-166.6199951171875,97.13999938964844,18.18000030517578
1759864135067307300,11.575307373046876,-166.8000030517578,96.95999908447266,18.18000030517578
1759864135077306000,11.58530615234375,-166.86000061035156,97.07999420166016,18.420000076293945
1759864135087304700,11.5953046875,-166.97999572753906,97.13999938964844,18.600000381469727
1759864135097303600,11.605303466796874,-167.27999877929688,97.6199951171875,18.65999984741211
1759864135107302400,11.615302490234376,-166.97999572753906,97.31999969482422,18.479999542236328
1759864135117301000,11.625301025390625,-166.739990234375,97.0199966430664,18.420000076293945
1759864135127299800,11.6352998046875,-166.9199981689453,96.95999908447266,18.779998779296875
1759864135137298700,11.645298583984374,-167.16000366210938,96.83999633789062,18.84000015258789
1759864135147297500,11.655297607421875,-167.39999389648438,96.41999816894531,19.020000457763672
1759864135157296600,11.665296630859375,-167.45999145507812,96.54000091552734,19.020000457763672
1759864135167295500,11.67529541015625,-167.45999145507812,96.65999603271484,18.719999313354492
1759864135177294600,11.685294677734374,-167.39999389648438,96.47999572753906,18.65999984741211
1759864135187293400,11.69529345703125,-167.45999145507812,97.07999420166016,18.899999618530273
1759864135197291800,11.705291748046875,-167.51998901367188,97.07999420166016,19.19999885559082
1759864135207291000,11.715290771484375,-167.51998901367188,97.0199966430664,19.439998626708984
1759864135217289200,11.725289306640626,-167.45999145507812,97.13999938964844,19.619998931884766
1759864135227287600,11.73528759765625,-167.39999389648438,97.0199966430664,19.260000228881836
1759864135237286700,11.74528662109375,-167.51998901367188,96.5999984741211,18.84000015258789
1759864135247285800,11.75528564453125,-167.5800018310547,96.9000015258789,18.719999313354492
1759864135257284000,11.7652841796875,-167.0399932861328,96.65999603271484,19.079999923706055
1759864135267282400,11.775282470703125,-166.86000061035156,96.5999984741211,19.3799991607666
1759864135277281500,11.785281494140625,-166.97999572753906,96.65999603271484,20.03999900817871
1759864135287280600,11.79528076171875,-166.97999572753906,96.1199951171875,19.85999870300293
1759864135297279700,11.80527978515625,-167.45999145507812,96,19.619998931884766
1759864135307278600,11.815278564453125,-167.5800018310547,95.93999481201172,19.920000076293945
1759864135317277700,11.825277587890625,-167.63999938964844,95.45999908447266,19.439998626708984
1759864135327276800,11.83527685546875,-167.63999938964844,95.75999450683594,19.5
1759864135337275600,11.845275634765626,-167.6999969482422,96,19.3799991607666
1759864135347274800,11.855274658203125,-167.8199920654297,96.05999755859375,18.779998779296875
1759864135357273900,11.86527392578125,-167.33999633789062,95.87999725341797,18.239999771118164
1759864135367273000,11.87527294921875,-167.27999877929688,95.45999908447266,18.420000076293945
1759864135377272000,11.88527197265625,-167.09999084472656,95.27999877929688,18.119998931884766
1759864135387271000,11.89527099609375,-167.09999084472656,95.27999877929688,18.119998931884766
1759864135397270000,11.90527001953125,-167.39999389648438,95.45999908447266,18.600000381469727
1759864135407268400,11.915268310546875,-166.97999572753906,95.57999420166016,18.35999870300293
1759864135417267500,11.925267333984374,-166.86000061035156,95.87999725341797,18.65999984741211
1759864135427266600,11.9352666015625,-166.1999969482422,95.69999694824219,19.19999885559082
1759864135437265400,11.945265380859375,-166.1999969482422,96,19.020000457763672
1759864135447264300,11.95526416015625,-166.739990234375,95.87999725341797,19.020000457763672
1759864135457263000,11.96526318359375,-166.739990234375,95.5199966430664,18.84000015258789
1759864135467262000,11.975261962890626,-167.0399932861328,95.81999969482422,18.479999542236328
1759864135477260800,11.9852607421875,-166.6199951171875,96.41999816894531,18.959999084472656
1759864135487259600,11.995259765625,-166.97999572753906,96.47999572753906,18.959999084472656
1759864135497259000,12.005259033203124,-167.51998901367188,96.47999572753906,19.079999923706055
1759864135507257900,12.0152578125,-167.45999145507812,96.1199951171875,19.739999771118164
1759864135517257200,12.02525732421875,-167.33999633789062,95.4000015258789,19.68000030517578
1759864135527256600,12.035256591796875,-166.9199981689453,95.33999633789062,19.739999771118164
1759864135537255400,12.04525537109375,-166.6199951171875,95.33999633789062,19.920000076293945
1759864135547254000,12.05525390625,-166.5,95.45999908447266,19.799999237060547
1759864135557253400,12.06525341796875,-166.67999267578125,95.69999694824219,19.979999542236328
1759864135567253000,12.0752529296875,-166.6199951171875,95.5199966430664,19.979999542236328
1759864135577251600,12.08525146484375,-166.5,95.22000122070312,19.68000030517578
1759864135587250400,12.09525048828125,-166.5,95.4000015258789,19.439998626708984
1759864135597249000,12.1052490234375,-166.3199920654297,95.5199966430664,19.31999969482422
1759864135607248000,12.115247802734375,-165.89999389648438,95.5199966430664,18.959999084472656
1759864135617246500,12.12524658203125,-166.1999969482422,96.18000030517578,19.19999885559082
1759864135627245300,12.135245361328124,-166.1999969482422,96.41999816894531,19.439998626708984
1759864135637244200,12.145244140625,-166.44000244140625,96.41999816894531,19.3799991607666
1759864135647242800,12.15524267578125,-166.37998962402344,96.29999542236328,19.68000030517578
1759864135657241600,12.16524169921875,-166.0800018310547,95.87999725341797,19.85999870300293
1759864135667240400,12.175240478515626,-166.13999938964844,95.27999877929688,19.799999237060547
1759864135677239000,12.185239013671875,-166.0800018310547,95.45999908447266,19.619998931884766
1759864135687238000,12.19523779296875,-166.0800018310547,95.93999481201172,19.68000030517578
1759864135697236700,12.20523681640625,-166.1999969482422,96.47999572753906,19.619998931884766
1759864135707236000,12.215236083984376,-165.95999145507812,97.25999450683594,19.85999870300293
1759864135717235000,12.22523486328125,-166.25999450683594,97.25999450683594,20.03999900817871
1759864135727233500,12.235233642578125,-166.5,97.0199966430664,19.979999542236328
1759864135737232400,12.245232421875,-166.5,97.0199966430664,19.68000030517578
1759864135747231000,12.25523095703125,-166.97999572753906,96.72000122070312,19.020000457763672
1759864135777227300,12.285227294921874,-166.6199951171875,96.54000091552734,18.84000015258789
1759864135787226000,12.29522607421875,-166.6199951171875,96.47999572753906,19.19999885559082
1759864135797225000,12.305224853515625,-166.55999755859375,96.54000091552734,19.139999389648438
1759864135807223600,12.3152236328125,-166.37998962402344,96.36000061035156,18.959999084472656
1759864135817222400,12.325222412109374,-166.13999938964844,96.1199951171875,19.5
1759864135827221200,12.33522119140625,-166.25999450683594,95.75999450683594,19.559999465942383
1759864135837219800,12.3452197265625,-166.6199951171875,96.18000030517578,19.739999771118164
1759864135847218700,12.35521875,-166.739990234375,96.05999755859375,19.979999542236328
1759864135857217300,12.36521728515625,-166.86000061035156,96.41999816894531,19.979999542236328
1759864135867216100,12.375216064453125,-166.37998962402344,96.47999572753906,19.68000030517578
1759864135877214700,12.385214599609375,-166.0800018310547,96.18000030517578,19.799999237060547
1759864135887213600,12.395213623046875,-165.89999389648438,96.9000015258789,19.979999542236328
1759864135897212400,12.40521240234375,-166.1999969482422,97.07999420166016,19.68000030517578
1759864135907211000,12.4152109375,-166.25999450683594,97.86000061035156,19.85999870300293
1759864135917209900,12.4252099609375,-166.44000244140625,98.27999877929688,19.920000076293945
1759864135927208400,12.43520849609375,-166.86000061035156,97.79999542236328,19.439998626708984
1759864135937207300,12.445207275390626,-166.8000030517578,98.22000122070312,19.739999771118164
1759864135947206000,12.455205810546875,-166.9199981689453,97.91999816894531,19.3799991607666
1759864135957204700,12.465204833984375,-166.37998962402344,97.86000061035156,18.779998779296875
1759864135967203300,12.475203369140624,-166.1999969482422,97.97999572753906,18.84000015258789
1759864135977202000,12.485201904296876,-166.1999969482422,97.79999542236328,18.719999313354492
1759864135987200800,12.49520068359375,-166.25999450683594,97.73999786376953,19.19999885559082
1759864135997199600,12.50519970703125,-166.25999450683594,98.15999603271484,19.559999465942383
1759864136007198200,12.5151982421875,-166.0800018310547,98.22000122070312,19.619998931884766
1759864136017197000,12.525197021484376,-166.1999969482422,98.04000091552734,19.739999771118164
1759864136027196000,12.53519580078125,-166.37998962402344,97.97999572753906,19.619998931884766
1759864136037194500,12.545194580078125,-166.6199951171875,98.0999984741211,19.920000076293945
1759864136047193300,12.555193359375,-167.09999084472656,98.57999420166016,20.100000381469727
1759864136057192000,12.56519189453125,-166.97999572753906,99,20.100000381469727
1759864136067190800,12.575190673828125,-166.44000244140625,99.1199951171875,20.03999900817871
1759864136077189600,12.585189697265625,-166.6199951171875,98.5199966430664,20.219999313354492
1759864136087188200,12.595188232421876,-165.83999633789062,98.0999984741211,20.279998779296875
1759864136097187000,12.60518701171875,-165.95999145507812,97.91999816894531,20.520000457763672
1759864136107186000,12.61518603515625,-166.13999938964844,97.91999816894531,20.760000228881836
1759864136117184500,12.6251845703125,-166.25999450683594,97.91999816894531,20.69999885559082
1759864136127183400,12.635183349609376,-166.9199981689453,97.86000061035156,20.81999969482422
1759864136137182000,12.645181884765625,-166.55999755859375,98.22000122070312,20.520000457763672
1759864136147180800,12.655180908203125,-166.9199981689453,98.04000091552734,20.520000457763672
1759864136157179600,12.6651796875,-166.86000061035156,98.04000091552734,20.279998779296875
1759864136167178200,12.67517822265625,-166.9199981689453,98.0999984741211,20.34000015258789
1759864136177177000,12.685177001953125,-167.0399932861328,97.25999450683594,20.279998779296875
1759864136187176000,12.695176025390625,-166.739990234375,97.07999420166016,20.34000015258789
1759864136197173800,12.705173828125,-167.0399932861328,96.83999633789062,20.81999969482422
1759864136207171800,12.715171875,-166.9199981689453,96.95999908447266,20.639999389648438
1759864136227168000,12.73516796875,-166.67999267578125,97.5,21.119998931884766
1759864136237166000,12.745166015625,-166.6199951171875,97.91999816894531,20.939998626708984
1759864136247166000,12.755166015625,-166.67999267578125,97.5,21.239999771118164
1759864136257164800,12.765164794921875,-166.9199981689453,98.04000091552734,21.059999465942383
1759864136267163000,12.775162841796876,-167.33999633789062,98.22000122070312,21.299999237060547
1759864136277162000,12.785161865234375,-167.33999633789062,98.04000091552734,21.53999900817871
1759864136287160800,12.795160888671875,-167.8199920654297,97.91999816894531,21.420000076293945
1759864136297159700,12.80515966796875,-167.87998962402344,97.31999969482422,21.600000381469727
1759864136307158500,12.815158447265626,-167.6999969482422,97.0199966430664,21.479999542236328
1759864136317157400,12.825157470703125,-167.51998901367188,96.72000122070312,21.53999900817871
1759864136327156200,12.83515625,-167.16000366210938,96.54000091552734,21.779998779296875
1759864136337155000,12.845155029296874,-167.27999877929688,96.41999816894531,21.779998779296875
1759864136347154000,12.85515380859375,-167.0399932861328,96.18000030517578,21.65999984741211
1759864136357152800,12.86515283203125,-167.27999877929688,96.1199951171875,21.899999618530273
1759864136367151600,12.875151611328125,-167.22000122070312,96.23999786376953,22.19999885559082
1759864136377150500,12.885150390625,-167.39999389648438,95.87999725341797,22.19999885559082
1759864136387149300,12.8951494140625,-167.39999389648438,95.87999725341797,22.68000030517578
1759864136397148200,12.905148193359375,-167.16000366210938,95.87999725341797,22.619998931884766
1759864136407147000,12.91514697265625,-167.22000122070312,95.75999450683594,22.260000228881836
1759864136417145900,12.925145751953124,-167.09999084472656,96.05999755859375,22.559999465942383
1759864136427144700,12.935144775390626,-167.5800018310547,95.69999694824219,22.260000228881836
1759864136437143600,12.9451435546875,-167.63999938964844,95.5199966430664,21.959999084472656
1759864136447142400,12.955142333984375,-167.6999969482422,95.22000122070312,22.260000228881836
1759864136457141200,12.965141357421874,-167.63999938964844,95.22000122070312,22.139999389648438
1759864136467140000,12.97514013671875,-167.39999389648438,95.27999877929688,21.719999313354492
1759864136477139000,12.985138916015625,-167.63999938964844,95.22000122070312,21.65999984741211
1759864136487137800,12.9951376953125,-167.51998901367188,95.5199966430664,21.420000076293945
1759864136497137400,13.005137451171874,-167.6999969482422,95.15999603271484,21.600000381469727
1759864136507137000,13.015136962890624,-167.39999389648438,95.4000015258789,21.899999618530273
1759864136517136600,13.02513671875,-167.39999389648438,95.33999633789062,22.31999969482422
1759864136527136300,13.03513623046875,-167.45999145507812,95.5199966430664,22.559999465942383
1759864136537135600,13.045135498046875,-166.67999267578125,95.63999938964844,22.5
1759864136547133400,13.055133544921874,-167.0399932861328,95.87999725341797,23.15999984741211
1759864136557132000,13.065132080078126,-166.97999572753906,96.47999572753906,22.85999870300293
1759864136567131600,13.075131591796875,-166.8000030517578,96.83999633789062,22.85999870300293
1759864136577130200,13.085130126953125,-167.33999633789062,97.13999938964844,22.3799991607666
1759864136587128800,13.09512890625,-167.22000122070312,97.37999725341797,22.079999923706055
1759864136597127700,13.105127685546876,-167.33999633789062,97.91999816894531,22.260000228881836
1759864136607126500,13.11512646484375,-167.63999938964844,97.5,22.079999923706055
1759864136617125000,13.125125,-167.33999633789062,98.04000091552734,22.619998931884766
1759864136627124000,13.1351240234375,-166.86000061035156,98.22000122070312,22.739999771118164
1759864136637122600,13.14512255859375,-166.8000030517578,97.68000030517578,22.85999870300293
1759864136647121400,13.155121337890625,-166.8000030517578,98.0999984741211,22.739999771118164
1759864136657120300,13.165120361328125,-166.9199981689453,97.79999542236328,22.739999771118164
1759864136667118800,13.175118896484374,-167.33999633789062,97.43999481201172,22.439998626708984
1759864136677117700,13.18511767578125,-167.22000122070312,97.25999450683594,22.799999237060547
1759864136687116500,13.195116455078125,-167.16000366210938,97.19999694824219,23.15999984741211
1759864136697115100,13.205115234375,-167.27999877929688,97.13999938964844,23.15999984741211
1759864136707114000,13.215114013671876,-167.5800018310547,97.07999420166016,23.219999313354492
1759864136717112600,13.225112548828125,-167.45999145507812,97.31999969482422,22.3799991607666
1759864136727111400,13.235111328125,-167.33999633789062,96.95999908447266,22.31999969482422
1759864136737110300,13.2451103515625,-167.5800018310547,96.95999908447266,22.31999969482422
1759864136747108900,13.25510888671875,-167.8199920654297,96.36000061035156,22.559999465942383
1759864136757107700,13.265107666015625,-167.51998901367188,96,23.399999618530273
1759864136767106600,13.2751064453125,-167.6999969482422,96.05999755859375,23.279998779296875
1759864136777105200,13.285105224609374,-167.39999389648438,95.75999450683594,23.279998779296875
1759864136787104000,13.29510400390625,-167.0399932861328,96.1199951171875,23.34000015258789
1759864136797102800,13.305102783203125,-167.22000122070312,96.05999755859375,23.639999389648438
1759864136807101400,13.315101318359375,-167.16000366210938,95.63999938964844,23.760000228881836
1759864136817100300,13.325100341796874,-166.9199981689453,95.15999603271484,23.69999885559082
1759864136827099000,13.335098876953126,-167.09999084472656,95.15999603271484,23.81999969482422
1759864136837097200,13.34509716796875,-167.27999877929688,95.0999984741211,23.219999313354492
1759864136847096000,13.355095947265625,-167.33999633789062,95.22000122070312,23.279998779296875
1759864136857094700,13.3650947265625,-167.45999145507812,95.69999694824219,23.399999618530273
1759864136867093500,13.375093505859375,-167.0399932861328,95.75999450683594,23.03999900817871
1759864136877092000,13.385092041015625,-166.67999267578125,95.93999481201172,23.100000381469727
1759864136887091000,13.395091064453124,-166.739990234375,96.05999755859375,23.03999900817871
1759864136897089800,13.40508984375,-166.8000030517578,96,23.03999900817871
1759864136907088400,13.41508837890625,-167.27999877929688,96.1199951171875,23.639999389648438
1759864136917087200,13.425087158203125,-167.27999877929688,96.5999984741211,23.69999885559082
1759864136927086000,13.435086181640624,-167.0399932861328,97.0199966430664,23.939998626708984
1759864136937084700,13.445084716796876,-167.33999633789062,97.37999725341797,23.8799991607666
1759864136947083300,13.455083251953125,-167.5800018310547,97.68000030517578,23.459999084472656
1759864136957082000,13.46508203125,-167.5800018310547,98.04000091552734,23.639999389648438
1759864136967080700,13.475080810546874,-167.33999633789062,97.91999816894531,23.279998779296875
1759864136977079600,13.48507958984375,-167.45999145507812,97.6199951171875,23.279998779296875
1759864136987078100,13.495078125,-166.9199981689453,97.6199951171875,23.399999618530273
1759864136997077000,13.505076904296875,-167.16000366210938,96.77999877929688,23.51999855041504
1759864137007075600,13.51507568359375,-167.63999938964844,97.0199966430664,23.639999389648438
1759864137017074400,13.525074462890625,-167.63999938964844,97.31999969482422,23.34000015258789
1759864137027073300,13.5350732421875,-167.87998962402344,97.6199951171875,23.459999084472656
1759864137037072000,13.54507177734375,-168.1199951171875,97.79999542236328,23.579999923706055
1759864137047070700,13.55507080078125,-168,97.79999542236328,23.8799991607666
1759864137057069300,13.5650693359375,-168,97.68000030517578,24.299999237060547
1759864137067068200,13.575068115234375,-167.75999450683594,97.43999481201172,24.18000030517578
1759864137077067000,13.58506689453125,-167.63999938964844,98.15999603271484,24.18000030517578
1759864137087065600,13.595065673828126,-168,98.4000015258789,23.81999969482422
1759864137097064400,13.605064453125,-167.45999145507812,98.63999938964844,23.81999969482422
1759864137107063300,13.615063232421875,-167.75999450683594,98.69999694824219,24.239999771118164
1759864137117062000,13.625061767578124,-167.5800018310547,98.75999450683594,24.18000030517578
