time,seconds_elapsed,z,y,x
1759864123823552500,0.331552490234375,-30.17999839782715,-21.959999084472656,-23.399999618530273
1759864123853552600,0.361552734375,-31.01999855041504,-22.68000030517578,-22.68000030517578
1759864123863557000,0.37155712890625,-30.959999084472656,-22.3799991607666,-22.3799991607666
1759864123873556200,0.38155615234375,-31.5,-22.260000228881836,-22.3799991607666
1759864123883556400,0.391556396484375,-30.959999084472656,-22.260000228881836,-21.959999084472656
1759864123893556200,0.40155615234375,-31.260000228881836,-22.439998626708984,-21.420000076293945
1759864123903556400,0.411556396484375,-31.01999855041504,-23.100000381469727,-21.18000030517578
1759864123913556200,0.42155615234375,-30.899999618530273,-23.51999855041504,-20.399999618530273
1759864123923556400,0.431556396484375,-30.899999618530273,-23.939998626708984,-19.85999870300293
1759864123933556200,0.44155615234375,-30.420000076293945,-24.18000030517578,-19.559999465942383
1759864123943556400,0.451556396484375,-30.420000076293945,-24.299999237060547,-19.079999923706055
1759864123953556200,0.46155615234375,-30.239999771118164,-25.01999855041504,-18.84000015258789
1759864123963556400,0.471556396484375,-30.239999771118164,-25.920000076293945,-18.53999900817871
1759864123973556200,0.48155615234375,-30.119998931884766,-26.399999618530273,-18.479999542236328
1759864123983556400,0.491556396484375,-30,-27.119998931884766,-18.119998931884766
1759864123993556200,0.50155615234375,-30.17999839782715,-27.059999465942383,-18.119998931884766
1759864124003557000,0.51155712890625,-29.939998626708984,-26.579999923706055,-18
1759864124013557000,0.521556884765625,-29.69999885559082,-26.760000228881836,-17.69999885559082
1759864124023557000,0.53155712890625,-29.81999969482422,-26.69999885559082,-17.520000457763672
1759864124033557000,0.541556884765625,-29.51999855041504,-26.760000228881836,-17.459999084472656
1759864124043557000,0.55155712890625,-29.51999855041504,-27,-17.940000534057617
1759864124053557000,0.561556884765625,-29.81999969482422,-27.059999465942383,-17.69999885559082
1759864124063557000,0.57155712890625,-29.8799991607666,-27.119998931884766,-17.579999923706055
1759864124073557000,0.581556884765625,-29.8799991607666,-27.059999465942383,-17.34000015258789
1759864124083557000,0.59155712890625,-30.17999839782715,-26.939998626708984,-16.440000534057617
1759864124093557000,0.601556884765625,-30.17999839782715,-26.51999855041504,-16.440000534057617
1759864124103557000,0.61155712890625,-30.119998931884766,-26.279998779296875,-16.3799991607666
1759864124113557500,0.6215576171875,-30.599998474121094,-26.219999313354492,-16.3799991607666
1759864124123557600,0.6315576171875,-30.479999542236328,-26.279998779296875,-16.85999870300293
1759864124133557500,0.6415576171875,-30.84000015258789,-26.03999900817871,-16.85999870300293
1759864124143557600,0.6515576171875,-31.139999389648438,-25.439998626708984,-16.920000076293945
1759864124153557500,0.6615576171875,-31.3799991607666,-25.079999923706055,-17.219999313354492
1759864124163557000,0.67155712890625,-32.21999740600586,-24.84000015258789,-16.979999542236328
1759864124173557200,0.68155712890625,-32.57999801635742,-24.479999542236328,-16.68000030517578
1759864124183557000,0.69155712890625,-32.57999801635742,-24.059999465942383,-16.739999771118164
1759864124193557200,0.70155712890625,-32.7599983215332,-23.459999084472656,-16.5
1759864124203557000,0.71155712890625,-32.63999938964844,-23.15999984741211,-16.5
1759864124213557200,0.72155712890625,-32.459999084472656,-22.979999542236328,-16.85999870300293
1759864124223557000,0.73155712890625,-32.7599983215332,-22.68000030517578,-17.399999618530273
1759864124233557200,0.74155712890625,-32.52000045776367,-22.619998931884766,-17.34000015258789
1759864124243557000,0.75155712890625,-32.459999084472656,-21.84000015258789,-17.520000457763672
1759864124253557800,0.761557861328125,-32.7599983215332,-21,-17.579999923706055
1759864124263557600,0.7715576171875,-33.47999954223633,-20.399999618530273,-17.279998779296875
1759864124273557800,0.781557861328125,-33.84000015258789,-19.85999870300293,-17.219999313354492
1759864124283557000,0.79155712890625,-33.959999084472656,-19.5,-17.219999313354492
1759864124293556200,0.80155615234375,-34.31999969482422,-19.3799991607666,-16.979999542236328
1759864124303555300,0.811555419921875,-34.619998931884766,-18.899999618530273,-16.979999542236328
1759864124313555000,0.821554931640625,-35.21999740600586,-18,-17.459999084472656
1759864124323554300,0.83155419921875,-35.939998626708984,-16.979999542236328,-17.219999313354492
1759864124333554000,0.841553955078125,-36.23999786376953,-16.139999389648438,-17.81999969482422
1759864124343553300,0.85155322265625,-36.18000030517578,-14.9399995803833,-18.35999870300293
1759864124353553400,0.861553466796875,-36.29999923706055,-13.920000076293945,-18.239999771118164
1759864124363553300,0.87155322265625,-36.71999740600586,-12.719999313354492,-19.020000457763672
1759864124373553400,0.881553466796875,-36.84000015258789,-11.579999923706055,-19.31999969482422
1759864124383553300,0.89155322265625,-37.07999801635742,-10.679999351501465,-19.260000228881836
1759864124393552400,0.901552490234375,-37.73999786376953,-10.380000114440918,-19.85999870300293
1759864124403552500,0.911552490234375,-37.619998931884766,-9.239999771118164,-20.34000015258789
1759864124413551900,0.9215517578125,-38.099998474121094,-7.980000019073486,-21.119998931884766
1759864124423551700,0.9315517578125,-38.34000015258789,-7.739999771118164,-21.65999984741211
1759864124433551400,0.94155126953125,-37.79999923706055,-6.899999618530273,-22.439998626708984
1759864124443551200,0.95155126953125,-37.68000030517578,-6.899999618530273,-23.15999984741211
1759864124453550800,0.96155078125,-37.619998931884766,-7.199999809265137,-23.639999389648438
1759864124463550700,0.97155078125,-37.2599983215332,-6.960000038146973,-23.760000228881836
1759864124473550300,0.98155029296875,-37.02000045776367,-7.5,-23.34000015258789
1759864124483549700,0.9915498046875,-36.71999740600586,-8.15999984741211,-23.219999313354492
1759864124493549300,1.00154931640625,-35.880001068115234,-8.579999923706055,-23.03999900817871
1759864124503549000,1.011548828125,-35.880001068115234,-8.9399995803833,-22.979999542236328
1759864124513548300,1.02154833984375,-35.70000076293945,-8.639999389648438,-23.579999923706055
1759864124523547600,1.031547607421875,-35.52000045776367,-8.579999923706055,-24.059999465942383
1759864124533547000,1.041547119140625,-35.880001068115234,-8.639999389648438,-24.119998931884766
1759864124543546400,1.05154638671875,-35.63999938964844,-9,-25.079999923706055
1759864124553545200,1.061545166015625,-35.880001068115234,-9.479999542236328,-25.079999923706055
1759864124563544600,1.071544677734375,-36,-9.719999313354492,-24.899999618530273
1759864124573543700,1.081543701171875,-35.880001068115234,-9.84000015258789,-25.139999389648438
1759864124583543600,1.09154345703125,-35.459999084472656,-9.960000038146973,-25.260000228881836
1759864124593543400,1.10154345703125,-34.73999786376953,-10.019999504089355,-25.3799991607666
1759864124603543000,1.11154296875,-34.439998626708984,-10.559999465942383,-25.3799991607666
1759864124613541600,1.121541748046875,-34.13999938964844,-11.039999961853027,-25.3799991607666
1759864124623540500,1.13154052734375,-33.959999084472656,-11.519999504089355,-25.079999923706055
1759864124633539800,1.141539794921875,-33.89999771118164,-11.519999504089355,-25.01999855041504
1759864124643538700,1.15153857421875,-34.02000045776367,-11.34000015258789,-25.079999923706055
1759864124653537300,1.161537353515625,-33.959999084472656,-11.460000038146973,-24.899999618530273
1759864124663536000,1.1715361328125,-34.02000045776367,-11.219999313354492,-25.01999855041504
1759864124673534500,1.181534423828125,-34.5,-11.460000038146973,-25.079999923706055
1759864124683532500,1.191532470703125,-34.31999969482422,-11.34000015258789,-25.260000228881836
1759864124693531400,1.201531494140625,-34.20000076293945,-11.15999984741211,-25.619998931884766
1759864124703530000,1.211530029296875,-34.31999969482422,-11.219999313354492,-25.5
1759864124713528800,1.22152880859375,-34.07999801635742,-11.460000038146973,-25.31999969482422
1759864124723527400,1.23152734375,-34.2599983215332,-11.75999927520752,-25.079999923706055
1759864124733526300,1.2415263671875,-34.68000030517578,-11.819999694824219,-25.31999969482422
1759864124743524900,1.25152490234375,-34.380001068115234,-11.75999927520752,-25.5
1759864124753523200,1.261523193359375,-34.20000076293945,-12.059999465942383,-25.439998626708984
1759864124763522000,1.27152197265625,-34.13999938964844,-12.119999885559082,-25.85999870300293
1759864124773520600,1.281520751953125,-33.84000015258789,-12.300000190734863,-25.619998931884766
1759864124783519500,1.29151953125,-34.13999938964844,-12.300000190734863,-25.19999885559082
1759864124793518000,1.30151806640625,-34.07999801635742,-12.119999885559082,-25.739999771118164
1759864124803517000,1.311516845703125,-34.2599983215332,-12.119999885559082,-25.3799991607666
1759864124813515800,1.321515869140625,-34.31999969482422,-12.300000190734863,-25.559999465942383
1759864124823514400,1.331514404296875,-34.2599983215332,-12.719999313354492,-26.03999900817871
1759864124833513200,1.34151318359375,-34.31999969482422,-13.019999504089355,-25.85999870300293
1759864124843512000,1.351511962890625,-33.65999984741211,-13.139999389648438,-26.639999389648438
1759864124853510700,1.3615107421875,-33.23999786376953,-13.139999389648438,-26.579999923706055
1759864124863509500,1.371509521484375,-32.52000045776367,-13.019999504089355,-26.939998626708984
1759864124873508000,1.381508056640625,-32.459999084472656,-12.719999313354492,-27.18000030517578
1759864124883506400,1.39150634765625,-32.52000045776367,-12.59999942779541,-26.8799991607666
1759864124893504300,1.401504150390625,-32.459999084472656,-12.420000076293945,-27.18000030517578
1759864124903503000,1.411503173828125,-33.18000030517578,-12.059999465942383,-26.8799991607666
1759864124913502700,1.421502685546875,-32.939998626708984,-11.75999927520752,-26.760000228881836
1759864124923502000,1.431502197265625,-33.71999740600586,-11.279999732971191,-26.69999885559082
1759864124933500700,1.441500732421875,-33.89999771118164,-11.279999732971191,-26.69999885559082
1759864124943499300,1.451499267578125,-34.02000045776367,-11.699999809265137,-26.69999885559082
1759864124953497300,1.461497314453125,-34.31999969482422,-12,-26.459999084472656
1759864124963495700,1.47149560546875,-34.07999801635742,-12.479999542236328,-25.85999870300293
1759864125023488000,1.531488037109375,-35.39999771118164,-10.619999885559082,-25.139999389648438
1759864125033486800,1.54148681640625,-35.39999771118164,-10.920000076293945,-24.719999313354492
1759864125043485400,1.5514853515625,-35.34000015258789,-11.219999313354492,-25.01999855041504
1759864125053484500,1.561484619140625,-35.15999984741211,-11.34000015258789,-25.01999855041504
1759864125063483400,1.5714833984375,-34.91999816894531,-10.979999542236328,-24.239999771118164
1759864125073482200,1.581482177734375,-35.34000015258789,-10.4399995803833,-24.239999771118164
1759864125083480800,1.591480712890625,-35.57999801635742,-10.019999504089355,-23.81999969482422
1759864125093479700,1.601479736328125,-35.63999938964844,-9.719999313354492,-23.399999618530273
1759864125103478300,1.611478271484375,-36.119998931884766,-9.539999961853027,-23.579999923706055
1759864125113477000,1.62147705078125,-36.05999755859375,-9.479999542236328,-22.979999542236328
1759864125123475700,1.631475830078125,-36.47999954223633,-9.359999656677246,-22.68000030517578
1759864125133474600,1.641474609375,-37.13999938964844,-9,-22.619998931884766
1759864125143473200,1.65147314453125,-37.07999801635742,-8.519999504089355,-22.619998931884766
1759864125153472000,1.661471923828125,-37.31999969482422,-7.919999599456787,-23.03999900817871
1759864125163470800,1.671470947265625,-37.07999801635742,-6.960000038146973,-23.100000381469727
1759864125173469400,1.681469482421875,-36.779998779296875,-6.539999961853027,-23.219999313354492
1759864125183468000,1.691468017578125,-36.959999084472656,-5.940000057220459,-22.020000457763672
1759864125193468000,1.701468017578125,-37.13999938964844,-5.819999694824219,-21.18000030517578
1759864125203466800,1.711466796875,-37.13999938964844,-5.940000057220459,-21.059999465942383
1759864125213465600,1.721465576171875,-37.13999938964844,-5.519999980926514,-20.579999923706055
1759864125223464200,1.731464111328125,-37.02000045776367,-5.519999980926514,-21.35999870300293
1759864125233463300,1.74146337890625,-36.959999084472656,-5.039999961853027,-21.959999084472656
1759864125243463000,1.751462890625,-37.13999938964844,-4.259999752044678,-21.779998779296875
1759864125253462500,1.761462646484375,-37.439998626708984,-4.139999866485596,-21.959999084472656
1759864125263461600,1.771461669921875,-37.55999755859375,-4.440000057220459,-22.079999923706055
1759864125273461200,1.781461181640625,-37.20000076293945,-4.799999713897705,-21.899999618530273
1759864125283460000,1.791460205078125,-37.79999923706055,-5.21999979019165,-21.959999084472656
1759864125293459500,1.80145947265625,-37.86000061035156,-6.059999942779541,-21.899999618530273
1759864125303458600,1.81145849609375,-38.279998779296875,-6.059999942779541,-21.779998779296875
1759864125313457400,1.82145751953125,-38.39999771118164,-6.480000019073486,-22.020000457763672
1759864125323456000,1.8314560546875,-37.91999816894531,-7.440000057220459,-21.719999313354492
1759864125333454800,1.841454833984375,-37.55999755859375,-7.859999656677246,-21.479999542236328
1759864125343453700,1.85145361328125,-37.07999801635742,-8.699999809265137,-21.239999771118164
1759864125353452300,1.861452392578125,-37.02000045776367,-8.9399995803833,-21.119998931884766
1759864125363451100,1.871451171875,-37.20000076293945,-9.359999656677246,-21.35999870300293
1759864125373449700,1.88144970703125,-36.959999084472656,-9.359999656677246,-21.600000381469727
1759864125383448600,1.891448486328125,-37.380001068115234,-9.119999885559082,-21.719999313354492
1759864125393447400,1.901447509765625,-37.20000076293945,-9.300000190734863,-22.079999923706055
1759864125403446000,1.911446044921875,-36.89999771118164,-9.179999351501465,-22.439998626708984
1759864125413444900,1.92144482421875,-36.959999084472656,-9.359999656677246,-22.739999771118164
1759864125423443700,1.931443603515625,-36.41999816894531,-9.359999656677246,-23.03999900817871
1759864125433442600,1.941442626953125,-36.779998779296875,-9.359999656677246,-22.619998931884766
1759864125443441400,1.95144140625,-36.65999984741211,-9.359999656677246,-22.31999969482422
1759864125453440500,1.9614404296875,-36.71999740600586,-9.239999771118164,-22.559999465942383
1759864125463439400,1.971439453125,-36.71999740600586,-9.779999732971191,-22.5
1759864125473438500,1.9814384765625,-36.779998779296875,-10.019999504089355,-22.979999542236328
1759864125483438000,1.99143798828125,-36.599998474121094,-10.260000228881836,-23.100000381469727
1759864125493436700,2.001436767578125,-36.540000915527344,-10.559999465942383,-22.619998931884766
1759864125503435800,2.011435791015625,-36.779998779296875,-10.559999465942383,-22.68000030517578
1759864125513435000,2.021434814453125,-36.540000915527344,-10.859999656677246,-22.31999969482422
1759864125523434000,2.03143408203125,-37.02000045776367,-10.979999542236328,-22.3799991607666
1759864125533433000,2.04143310546875,-36.84000015258789,-11.279999732971191,-22.619998931884766
1759864125543432200,2.05143212890625,-36.29999923706055,-11.460000038146973,-22.260000228881836
1759864125553431300,2.061431396484375,-36.41999816894531,-11.039999961853027,-22.31999969482422
1759864125563430400,2.071430419921875,-35.880001068115234,-10.679999351501465,-22.5
1759864125573429500,2.081429443359375,-35.880001068115234,-10.380000114440918,-22.68000030517578
1759864125583428400,2.091428466796875,-36.119998931884766,-10.079999923706055,-22.979999542236328
1759864125593427500,2.101427490234375,-36.05999755859375,-9.779999732971191,-23.03999900817871
1759864125603426600,2.111426513671875,-36.23999786376953,-9.65999984741211,-23.15999984741211
1759864125623423500,2.131423583984375,-36.65999984741211,-9.179999351501465,-23.459999084472656
1759864125633422600,2.141422607421875,-36.47999954223633,-9.300000190734863,-23.81999969482422
1759864125643421700,2.151421630859375,-36.65999984741211,-9.359999656677246,-23.8799991607666
1759864125653420800,2.1614208984375,-36.36000061035156,-9.239999771118164,-23.34000015258789
1759864125663420000,2.171419921875,-36.18000030517578,-9.420000076293945,-23.399999618530273
1759864125673419000,2.1814189453125,-36,-9.719999313354492,-23.279998779296875
1759864125683418000,2.191418212890625,-36,-9.539999961853027,-23.219999313354492
1759864125693416700,2.201416748046875,-36.36000061035156,-10.139999389648438,-23.399999618530273
1759864125703415300,2.211415283203125,-36.05999755859375,-10.199999809265137,-23.459999084472656
1759864125713414100,2.2214140625,-36.29999923706055,-10.319999694824219,-23.15999984741211
1759864125723413200,2.231413330078125,-35.81999969482422,-11.15999984741211,-23.03999900817871
1759864125733411600,2.24141162109375,-35.21999740600586,-11.039999961853027,-22.979999542236328
1759864125743410400,2.251410400390625,-35.15999984741211,-11.279999732971191,-22.979999542236328
1759864125753409300,2.2614091796875,-34.91999816894531,-11.399999618530273,-22.979999542236328
1759864125763408100,2.271408203125,-34.86000061035156,-11.15999984741211,-22.739999771118164
1759864125773407000,2.281406982421875,-35.279998779296875,-11.15999984741211,-22.559999465942383
1759864125783405800,2.29140576171875,-35.63999938964844,-11.399999618530273,-22.31999969482422
1759864125793404700,2.30140478515625,-35.81999969482422,-11.34000015258789,-22.31999969482422
1759864125803403500,2.311403564453125,-35.880001068115234,-11.399999618530273,-22.68000030517578
1759864125813402000,2.321402099609375,-36,-11.699999809265137,-23.279998779296875
1759864125823401000,2.33140087890625,-36,-11.880000114440918,-23.15999984741211
1759864125833399600,2.341399658203125,-36,-12.179999351501465,-23.34000015258789
1759864125843398400,2.3513984375,-35.880001068115234,-12.059999465942383,-23.279998779296875
1759864125853397000,2.36139697265625,-35.81999969482422,-11.639999389648438,-23.03999900817871
1759864125863395600,2.3713955078125,-35.939998626708984,-11.639999389648438,-23.34000015258789
1759864125873394400,2.38139453125,-35.63999938964844,-11.519999504089355,-23.579999923706055
1759864125883393000,2.39139306640625,-35.57999801635742,-11.519999504089355,-23.399999618530273
1759864125893391600,2.4013916015625,-35.52000045776367,-11.9399995803833,-23.34000015258789
1759864125903390500,2.411390380859375,-35.279998779296875,-11.639999389648438,-23.639999389648438
1759864125913389600,2.4213896484375,-35.15999984741211,-11.519999504089355,-23.279998779296875
1759864125923389000,2.431388916015625,-35.099998474121094,-11.639999389648438,-23.51999855041504
1759864125933387800,2.4413876953125,-34.86000061035156,-11.9399995803833,-23.279998779296875
1759864125943385900,2.4513857421875,-34.5,-11.819999694824219,-22.979999542236328
1759864125953384000,2.461384033203125,-34.68000030517578,-11.75999927520752,-22.979999542236328
1759864125963382300,2.47138232421875,-34.86000061035156,-11.639999389648438,-22.68000030517578
1759864125973380900,2.481380859375,-34.91999816894531,-11.15999984741211,-22.85999870300293
1759864125983379700,2.491379638671875,-35.52000045776367,-11.9399995803833,-22.5
1759864125993378800,2.50137890625,-35.63999938964844,-12.719999313354492,-22.739999771118164
1759864126003378200,2.511378173828125,-35.70000076293945,-13.4399995803833,-22.619998931884766
1759864126013377000,2.521376953125,-35.939998626708984,-13.920000076293945,-22.31999969482422
1759864126023375600,2.531375732421875,-36,-13.679999351501465,-21.779998779296875
1759864126033375200,2.541375244140625,-36.41999816894531,-13.380000114440918,-20.81999969482422
1759864126043373800,2.551373779296875,-36.84000015258789,-13.139999389648438,-20.81999969482422
1759864126053372700,2.56137255859375,-36.47999954223633,-13.5,-20.639999389648438
1759864126063371500,2.57137158203125,-36.540000915527344,-13.079999923706055,-21.18000030517578
1759864126073370000,2.5813701171875,-36.41999816894531,-12.899999618530273,-21.53999900817871
1759864126083369000,2.591368896484375,-36.29999923706055,-12.719999313354492,-21.719999313354492
1759864126093367600,2.601367431640625,-36.599998474121094,-11.699999809265137,-22.31999969482422
1759864126103366400,2.611366455078125,-36.41999816894531,-11.639999389648438,-22.559999465942383
1759864126113365000,2.621364990234375,-36.540000915527344,-10.859999656677246,-22.3799991607666
1759864126123363800,2.63136376953125,-36.36000061035156,-10.260000228881836,-22.19999885559082
1759864126133362700,2.64136279296875,-36.47999954223633,-10.619999885559082,-22.5
1759864126143361300,2.651361328125,-36.89999771118164,-10.619999885559082,-22.619998931884766
1759864126153360100,2.661360107421875,-36.41999816894531,-11.09999942779541,-23.51999855041504
1759864126163359000,2.67135888671875,-36.71999740600586,-11.460000038146973,-23.459999084472656
1759864126173357600,2.681357666015625,-36.41999816894531,-11.09999942779541,-23.03999900817871
1759864126183356700,2.691356689453125,-36.05999755859375,-10.979999542236328,-22.979999542236328
1759864126193355300,2.701355224609375,-35.939998626708984,-10.979999542236328,-22.559999465942383
1759864126203354000,2.71135400390625,-35.39999771118164,-11.279999732971191,-23.219999313354492
1759864126213353200,2.721353271484375,-35.34000015258789,-12.239999771118164,-23.51999855041504
1759864126223351800,2.731351806640625,-35.040000915527344,-13.019999504089355,-23.760000228881836
1759864126233350700,2.7413505859375,-34.91999816894531,-13.319999694824219,-24.239999771118164
1759864126243350000,2.75135009765625,-34.86000061035156,-13.5,-24.35999870300293
1759864126253349400,2.761349365234375,-34.5,-13.199999809265137,-24.35999870300293
1759864126273347300,2.781347412109375,-34.5,-12.719999313354492,-24.65999984741211
1759864126283346200,2.79134619140625,-34.380001068115234,-12.84000015258789,-24.899999618530273
1759864126293344800,2.8013447265625,-34.31999969482422,-12.65999984741211,-25.139999389648438
1759864126303343600,2.811343505859375,-34.439998626708984,-12.420000076293945,-25.439998626708984
1759864126313342200,2.82134228515625,-34.439998626708984,-12.359999656677246,-25.559999465942383
1759864126323341000,2.831341064453125,-34.13999938964844,-12.239999771118164,-25.619998931884766
1759864126333340000,2.84133984375,-34.02000045776367,-12.300000190734863,-25.68000030517578
1759864126343338500,2.85133837890625,-33.89999771118164,-12.359999656677246,-25.68000030517578
1759864126353337300,2.86133740234375,-33.599998474121094,-12.84000015258789,-25.799999237060547
1759864126363336000,2.8713359375,-33.959999084472656,-12.65999984741211,-25.85999870300293
1759864126373334000,2.881333984375,-33.599998474121094,-12.65999984741211,-26.03999900817871
1759864126383332900,2.891332763671875,-33.71999740600586,-12.84000015258789,-25.559999465942383
1759864126393331700,2.901331787109375,-33.89999771118164,-12.359999656677246,-25.3799991607666
1759864126403330300,2.911330322265625,-33.84000015258789,-12.779999732971191,-25.260000228881836
1759864126413329200,2.9213291015625,-34.31999969482422,-12.539999961853027,-24.899999618530273
1759864126423328000,2.931327880859375,-34.13999938964844,-12.779999732971191,-25.439998626708984
1759864126433326600,2.94132666015625,-33.84000015258789,-13.139999389648438,-25.739999771118164
1759864126443325400,2.951325439453125,-33.71999740600586,-12.899999618530273,-25.739999771118164
1759864126453324000,2.961323974609375,-33.959999084472656,-13.139999389648438,-26.219999313354492
1759864126463323000,2.971322998046875,-34.02000045776367,-12.719999313354492,-25.559999465942383
1759864126473321700,2.98132177734375,-34.439998626708984,-12,-25.19999885559082
1759864126483320300,2.9913203125,-34.73999786376953,-11.639999389648438,-24.84000015258789
1759864126493319200,3.001319091796875,-34.86000061035156,-11.09999942779541,-24.53999900817871
1759864126503318000,3.011318115234375,-34.97999954223633,-10.739999771118164,-25.139999389648438
1759864126513316600,3.021316650390625,-34.68000030517578,-10.619999885559082,-25.31999969482422
1759864126523315700,3.031315673828125,-35.099998474121094,-10.079999923706055,-25.5
1759864126533314600,3.041314453125,-34.91999816894531,-9.59999942779541,-25.31999969482422
1759864126543313400,3.0513134765625,-35.040000915527344,-9.119999885559082,-25.079999923706055
1759864126553312500,3.0613125,-35.52000045776367,-8.399999618530273,-24.959999084472656
1759864126563311400,3.071311279296875,-35.52000045776367,-8.09999942779541,-25.01999855041504
1759864126573310500,3.081310546875,-35.52000045776367,-7.440000057220459,-25.079999923706055
1759864126583309300,3.091309326171875,-35.52000045776367,-7.199999809265137,-25.139999389648438
1759864126593308400,3.101308349609375,-35.57999801635742,-6.899999618530273,-25.139999389648438
1759864126603307500,3.1113076171875,-35.040000915527344,-6.599999904632568,-25.19999885559082
1759864126613306600,3.121306640625,-34.97999954223633,-7.019999980926514,-25.559999465942383
1759864126623305700,3.1313056640625,-34.619998931884766,-7.019999980926514,-25.739999771118164
1759864126633304600,3.1413046875,-34.380001068115234,-6.839999675750732,-26.15999984741211
1759864126643303700,3.1513037109375,-34.31999969482422,-7.139999866485596,-25.85999870300293
1759864126653302800,3.161302734375,-34.91999816894531,-6.899999618530273,-25.619998931884766
1759864126663302000,3.171302001953125,-35.63999938964844,-6.659999847412109,-25.079999923706055
1759864126673301800,3.1813017578125,-35.70000076293945,-7.079999923706055,-24.959999084472656
1759864126683300600,3.191300537109375,-36.18000030517578,-6.960000038146973,-25.19999885559082
1759864126693299700,3.2012998046875,-35.63999938964844,-7.199999809265137,-25.5
1759864126703298800,3.211298828125,-34.86000061035156,-7.019999980926514,-26.099998474121094
1759864126713298000,3.2212978515625,-35.040000915527344,-7.019999980926514,-25.68000030517578
1759864126723296800,3.231296875,-34.86000061035156,-6.659999847412109,-25.85999870300293
1759864126733295900,3.2412958984375,-35.459999084472656,-6.119999885559082,-25.31999969482422
1759864126743295000,3.251294921875,-36,-6.119999885559082,-25.619998931884766
1759864126753294000,3.261294189453125,-36.23999786376953,-5.819999694824219,-25.739999771118164
1759864126763293200,3.271293212890625,-36.599998474121094,-6.059999942779541,-25.31999969482422
1759864126773292300,3.281292236328125,-36,-6.599999904632568,-25.5
1759864126783291100,3.291291015625,-36.18000030517578,-6.480000019073486,-24.899999618530273
1759864126793290200,3.301290283203125,-35.939998626708984,-6.359999656677246,-24.779998779296875
1759864126803289300,3.311289306640625,-35.7599983215332,-5.699999809265137,-24.84000015258789
1759864126813288400,3.321288330078125,-36.29999923706055,-5.519999980926514,-24.719999313354492
1759864126823287300,3.331287353515625,-36.119998931884766,-5.639999866485596,-24.899999618530273
1759864126833286100,3.3412861328125,-36.29999923706055,-5.639999866485596,-25.19999885559082
1759864126843285000,3.351284912109375,-36.18000030517578,-6.059999942779541,-24.959999084472656
1759864126853283800,3.361283935546875,-35.81999969482422,-5.699999809265137,-25.260000228881836
1759864126863282700,3.37128271484375,-35.57999801635742,-5.87999963760376,-24.899999618530273
1759864126873281300,3.38128125,-35.70000076293945,-6.480000019073486,-24.959999084472656
1759864126883279400,3.391279296875,-35.52000045776367,-6.899999618530273,-25.31999969482422
1759864126893277200,3.401277099609375,-35.34000015258789,-7.5,-25.19999885559082
1759864126903275300,3.411275146484375,-35.52000045776367,-7.37999963760376,-25.739999771118164
1759864126913274000,3.421274169921875,-35.21999740600586,-7.199999809265137,-25.739999771118164
1759864126923272700,3.431272705078125,-34.97999954223633,-6.539999961853027,-25.31999969482422
1759864126933271600,3.441271484375,-35.21999740600586,-6,-25.439998626708984
1759864126943270100,3.451270263671875,-35.279998779296875,-5.87999963760376,-25.31999969482422
1759864126953268500,3.4612685546875,-35.57999801635742,-5.460000038146973,-25.260000228881836
1759864126963267000,3.47126708984375,-36.119998931884766,-6.239999771118164,-25.559999465942383
1759864126973266000,3.481265869140625,-36.41999816894531,-6.239999771118164,-25.68000030517578
1759864126983264500,3.491264404296875,-36.36000061035156,-6.359999656677246,-25.68000030517578
1759864126993263400,3.501263427734375,-36.18000030517578,-6.599999904632568,-25.68000030517578
1759864127003262200,3.51126220703125,-35.939998626708984,-6.239999771118164,-25.85999870300293
1759864127013260800,3.5212607421875,-35.459999084472656,-6.179999828338623,-25.559999465942383
1759864127023259600,3.531259765625,-35.52000045776367,-6.179999828338623,-25.439998626708984
1759864127033258500,3.541258544921875,-35.279998779296875,-6.420000076293945,-25.3799991607666
1759864127043257000,3.551257080078125,-35.279998779296875,-6.480000019073486,-25.139999389648438
1759864127053256000,3.561255859375,-35.459999084472656,-6.839999675750732,-25.01999855041504
1759864127063254500,3.571254638671875,-35.459999084472656,-7.079999923706055,-25.19999885559082
1759864127093250800,3.601250732421875,-35.57999801635742,-7.559999942779541,-25.619998931884766
1759864127103249700,3.611249755859375,-35.279998779296875,-7.559999942779541,-25.619998931884766
1759864127113248300,3.621248291015625,-35.21999740600586,-7.859999656677246,-25.739999771118164
1759864127123247000,3.6312470703125,-35.57999801635742,-7.919999599456787,-25.5
1759864127133246000,3.641245849609375,-35.81999969482422,-8.279999732971191,-25.3799991607666
1759864127143244500,3.65124462890625,-36.119998931884766,-8.579999923706055,-25.31999969482422
1759864127153243400,3.661243408203125,-36,-9.059999465942383,-25.68000030517578
1759864127163242200,3.6712421875,-35.52000045776367,-9.059999465942383,-25.85999870300293
1759864127173240800,3.68124072265625,-34.91999816894531,-8.819999694824219,-25.979999542236328
1759864127183240400,3.691240478515625,-34.55999755859375,-8.579999923706055,-25.799999237060547
1759864127193240000,3.701239990234375,-34.619998931884766,-8.460000038146973,-25.5
1759864127203239400,3.711239501953125,-35.099998474121094,-8.039999961853027,-25.5
1759864127213238300,3.72123828125,-34.97999954223633,-8.039999961853027,-25.739999771118164
1759864127223236900,3.73123681640625,-35.39999771118164,-7.919999599456787,-26.219999313354492
1759864127233235700,3.741235595703125,-34.97999954223633,-7.739999771118164,-26.579999923706055
1759864127243234600,3.751234619140625,-34.68000030517578,-7.799999713897705,-26.639999389648438
1759864127253233000,3.76123291015625,-35.21999740600586,-7.5,-26.760000228881836
1759864127263231700,3.771231689453125,-34.79999923706055,-7.139999866485596,-26.579999923706055
1759864127273230600,3.781230712890625,-34.97999954223633,-6.71999979019165,-26.279998779296875
1759864127283229000,3.79122900390625,-35.63999938964844,-6.659999847412109,-26.279998779296875
1759864127293227000,3.80122705078125,-35.52000045776367,-6.420000076293945,-26.03999900817871
1759864127303225600,3.8112255859375,-35.52000045776367,-6.779999732971191,-26.34000015258789
1759864127313224400,3.821224365234375,-35.880001068115234,-6.839999675750732,-26.51999855041504
1759864127323223000,3.83122314453125,-35.459999084472656,-6.359999656677246,-26.8799991607666
1759864127333222000,3.841221923828125,-35.040000915527344,-6.179999828338623,-26.8799991607666
1759864127343220500,3.851220458984375,-35.040000915527344,-6.179999828338623,-26.639999389648438
1759864127353219300,3.86121923828125,-35.279998779296875,-5.759999752044678,-26.279998779296875
1759864127363218000,3.871218017578125,-34.91999816894531,-5.940000057220459,-26.099998474121094
1759864127373216800,3.881216796875,-35.52000045776367,-6.420000076293945,-26.34000015258789
1759864127383215400,3.89121533203125,-35.7599983215332,-5.819999694824219,-26.34000015258789
1759864127393214200,3.901214111328125,-35.57999801635742,-5.940000057220459,-26.34000015258789
1759864127403212800,3.911212890625,-35.70000076293945,-5.759999752044678,-26.219999313354492
1759864127413211600,3.921211669921875,-35.040000915527344,-5.21999979019165,-25.68000030517578
1759864127423210500,3.93121044921875,-34.79999923706055,-5.400000095367432,-25.68000030517578
1759864127433209000,3.941208984375,-34.79999923706055,-5.87999963760376,-25.799999237060547
1759864127443208000,3.9512080078125,-35.34000015258789,-6,-25.920000076293945
1759864127453206500,3.96120654296875,-35.57999801635742,-6.119999885559082,-26.219999313354492
1759864127463205400,3.971205322265625,-35.52000045776367,-6.420000076293945,-26.459999084472656
1759864127473204200,3.981204345703125,-35.099998474121094,-6.239999771118164,-26.219999313354492
1759864127483202800,3.991202880859375,-34.619998931884766,-6.71999979019165,-26.15999984741211
1759864127493201700,4.00120166015625,-35.099998474121094,-6.659999847412109,-26.099998474121094
1759864127503200500,4.011200439453125,-34.97999954223633,-6.599999904632568,-25.85999870300293
1759864127513199000,4.02119921875,-35.39999771118164,-6.480000019073486,-25.739999771118164
1759864127523198000,4.031197998046875,-35.70000076293945,-6.179999828338623,-25.139999389648438
1759864127533196800,4.04119677734375,-35.81999969482422,-6.599999904632568,-25.079999923706055
1759864127543195400,4.0511953125,-35.81999969482422,-6.779999732971191,-24.479999542236328
1759864127553194800,4.06119482421875,-36.119998931884766,-7.319999694824219,-24
1759864127563193600,4.071193603515625,-36.119998931884766,-7.319999694824219,-24.299999237060547
1759864127573192400,4.0811923828125,-35.52000045776367,-7.559999942779541,-24.299999237060547
1759864127583191300,4.09119140625,-35.57999801635742,-7.5,-24.119998931884766
1759864127593191000,4.10119091796875,-35.099998474121094,-7.319999694824219,-24.600000381469727
1759864127603189800,4.111189697265625,-34.619998931884766,-7.799999713897705,-24.299999237060547
1759864127613188400,4.121188232421875,-35.040000915527344,-7.799999713897705,-24.18000030517578
1759864127623187200,4.131187255859375,-35.040000915527344,-7.919999599456787,-24.299999237060547
1759864127633186000,4.14118603515625,-35.15999984741211,-8.039999961853027,-24.059999465942383
1759864127643185200,4.15118505859375,-35.21999740600586,-8.519999504089355,-24.059999465942383
1759864127653184000,4.16118408203125,-34.68000030517578,-9.179999351501465,-23.8799991607666
1759864127663182800,4.171182861328125,-34.439998626708984,-9.65999984741211,-24.35999870300293
1759864127673181700,4.181181640625,-34.31999969482422,-10.019999504089355,-24.420000076293945
1759864127683180500,4.1911806640625,-34.86000061035156,-9.84000015258789,-24.239999771118164
1759864127693179400,4.201179443359375,-35.21999740600586,-9.65999984741211,-23.939998626708984
1759864127703178500,4.211178466796875,-35.57999801635742,-9.84000015258789,-23.51999855041504
1759864127713177300,4.22117724609375,-35.52000045776367,-9.719999313354492,-23.34000015258789
1759864127723176000,4.231176025390625,-34.68000030517578,-9.65999984741211,-23.459999084472656
1759864127733175000,4.241175048828125,-34.73999786376953,-9.779999732971191,-23.51999855041504
1759864127743174000,4.251173828125,-34.86000061035156,-9,-23.459999084472656
1759864127753172700,4.2611728515625,-34.97999954223633,-8.9399995803833,-23.51999855041504
1759864127763171600,4.271171630859375,-35.52000045776367,-8.760000228881836,-23.34000015258789
1759864127773170400,4.28117041015625,-35.880001068115234,-7.980000019073486,-23.219999313354492
1759864127783169300,4.291169189453125,-36,-8.460000038146973,-23.399999618530273
1759864127793168100,4.301168212890625,-35.880001068115234,-8.220000267028809,-22.85999870300293
1759864127803167000,4.3111669921875,-35.70000076293945,-8.039999961853027,-22.799999237060547
1759864127813165800,4.321165771484375,-35.63999938964844,-7.919999599456787,-23.03999900817871
1759864127823164700,4.33116455078125,-35.34000015258789,-7.559999942779541,-22.439998626708984
1759864127833163500,4.34116357421875,-35.70000076293945,-7.5,-22.739999771118164
1759864127843162400,4.351162353515625,-35.81999969482422,-7.139999866485596,-22.739999771118164
1759864127853161200,4.3611611328125,-35.63999938964844,-7.079999923706055,-22.079999923706055
1759864127863160000,4.37116015625,-35.70000076293945,-6.71999979019165,-22.559999465942383
1759864127873158400,4.381158447265625,-35.279998779296875,-6.420000076293945,-22.439998626708984
1759864127883157000,4.391156982421875,-35.279998779296875,-6.359999656677246,-22.3799991607666
1759864127893155000,4.401155029296875,-35.21999740600586,-6.420000076293945,-22.68000030517578
1759864127903153200,4.411153076171875,-34.91999816894531,-6.539999961853027,-22.020000457763672
1759864127913151700,4.42115185546875,-35.459999084472656,-6.960000038146973,-21.779998779296875
1759864127923150600,4.431150634765625,-36,-7.199999809265137,-21.600000381469727
1759864127933149400,4.4411494140625,-36.41999816894531,-7.019999980926514,-21.600000381469727
1759864127943148000,4.45114794921875,-37.2599983215332,-7.079999923706055,-22.020000457763672
1759864127953147000,4.46114697265625,-37.439998626708984,-6.659999847412109,-22.139999389648438
1759864127963145500,4.4711455078125,-37.2599983215332,-6.71999979019165,-22.3799991607666
1759864127973143600,4.4811435546875,-37.02000045776367,-6.599999904632568,-22.3799991607666
1759864127983142100,4.49114208984375,-36.41999816894531,-6.059999942779541,-22.079999923706055
1759864127993140200,4.50114013671875,-35.880001068115234,-5.819999694824219,-22.079999923706055
1759864128003139000,4.51113916015625,-35.81999969482422,-5.579999923706055,-21.84000015258789
1759864128013137700,4.5211376953125,-35.939998626708984,-5.699999809265137,-21.719999313354492
1759864128023136500,4.531136474609375,-36.29999923706055,-5.639999866485596,-21.959999084472656
1759864128033135000,4.541135009765625,-36.599998474121094,-4.920000076293945,-21.35999870300293
1759864128043134000,4.551134033203125,-36.29999923706055,-4.799999713897705,-21.53999900817871
1759864128053132500,4.561132568359375,-36.18000030517578,-4.5,-21.53999900817871
1759864128063131400,4.57113134765625,-36.05999755859375,-4.5,-21.65999984741211
1759864128073129500,4.58112939453125,-36.36000061035156,-5.159999847412109,-22.260000228881836
1759864128083128000,4.591128173828125,-36.599998474121094,-5.279999732971191,-21.899999618530273
1759864128093127000,4.601126953125,-36.41999816894531,-4.980000019073486,-21.719999313354492
1759864128103125800,4.611125732421875,-36.599998474121094,-4.980000019073486,-21.35999870300293
1759864128133122000,4.6411220703125,-37.02000045776367,-4.019999980926514,-21.899999618530273
1759864128143120600,4.65112060546875,-37.02000045776367,-3.7200000286102295,-22.139999389648438
1759864128153119500,4.661119384765625,-37.07999801635742,-4.079999923706055,-21.65999984741211
1759864128167123000,4.675123046875,-36.89999771118164,-4.139999866485596,-22.020000457763672
1759864128177122300,4.685122314453125,-36.23999786376953,-4.319999694824219,-21.899999618530273
1759864128187121400,4.695121337890625,-36.119998931884766,-4.139999866485596,-21.779998779296875
1759864128197120800,4.705120849609375,-36.05999755859375,-3.359999895095825,-21.65999984741211
1759864128207120400,4.715120361328125,-36.36000061035156,-3.7200000286102295,-21.239999771118164
1759864128217119200,4.725119140625,-36.29999923706055,-3.299999952316284,-21.299999237060547
1759864128227117800,4.735117919921875,-36.29999923706055,-3.7200000286102295,-21.119998931884766
1759864128237116700,4.74511669921875,-36.540000915527344,-4.199999809265137,-21
1759864128247115500,4.755115478515625,-36.05999755859375,-3.7799999713897705,-21.059999465942383
1759864128257114000,4.765114013671875,-36.29999923706055,-3.8999998569488525,-21.18000030517578
1759864128267113000,4.775113037109375,-36.41999816894531,-3.8399999141693115,-21.239999771118164
1759864128277112300,4.7851123046875,-36.540000915527344,-3.7799999713897705,-21.65999984741211
1759864128287111200,4.795111083984375,-36.119998931884766,-3.240000009536743,-21.600000381469727
1759864128297110800,4.80511083984375,-35.939998626708984,-3,-21.53999900817871
1759864128307109400,4.815109375,-35.70000076293945,-2.5799999237060547,-21.719999313354492
1759864128317108200,4.825108154296875,-35.57999801635742,-2.1599998474121094,-21.059999465942383
1759864128327106800,4.83510693359375,-35.939998626708984,-2.3999998569488525,-21.299999237060547
1759864128337105700,4.845105712890625,-36.119998931884766,-2.1599998474121094,-20.939998626708984
1759864128347104300,4.855104248046875,-35.7599983215332,-1.8600000143051147,-20.939998626708984
1759864128357103000,4.86510302734375,-35.52000045776367,-1.8600000143051147,-21.420000076293945
1759864128367101700,4.875101806640625,-35.880001068115234,-1.8600000143051147,-21.35999870300293
1759864128377101000,4.88510107421875,-35.81999969482422,-1.7999999523162842,-21.479999542236328
1759864128387100000,4.895099853515625,-36.29999923706055,-1.7999999523162842,-21.119998931884766
1759864128397098500,4.905098388671875,-36.65999984741211,-1.7999999523162842,-21.119998931884766
1759864128407097300,4.915097412109375,-36.18000030517578,-1.3199999332427979,-20.8799991607666
1759864128417096200,4.92509619140625,-36.29999923706055,-1.0799999237060547,-21.18000030517578
1759864128427094800,4.9350947265625,-36.18000030517578,-1.0199999809265137,-21
1759864128437093600,4.94509375,-36.41999816894531,-0.5999999642372131,-20.8799991607666
1759864128447092200,4.95509228515625,-36.779998779296875,-0.8399999737739563,-20.8799991607666
1759864128457091000,4.965091064453125,-36.599998474121094,-0.8399999737739563,-20.219999313354492
1759864128467090000,4.97508984375,-36.84000015258789,-0.7199999690055847,-20.579999923706055
1759864128477088500,4.985088623046875,-36.84000015258789,-0.7199999690055847,-20.100000381469727
1759864128487087400,4.99508740234375,-36.65999984741211,-0.6599999666213989,-19.979999542236328
1759864128497086000,5.0050859375,-37.31999969482422,-0.35999998450279236,-20.279998779296875
1759864128507084800,5.015084716796875,-37.20000076293945,0,-19.3799991607666
1759864128517083600,5.025083740234375,-37.13999938964844,-0.11999999731779099,-19.619998931884766
1759864128527082200,5.035082275390625,-37.55999755859375,0.17999999225139618,-19.559999465942383
1759864128537081000,5.0450810546875,-37.31999969482422,0.23999999463558197,-19.68000030517578
1759864128547080000,5.055079833984375,-37.380001068115234,0.05999999865889549,-20.219999313354492
1759864128557078500,5.06507861328125,-37.20000076293945,-0.11999999731779099,-20.03999900817871
1759864128567077400,5.075077392578125,-36.599998474121094,-0.11999999731779099,-19.979999542236328
1759864128577076200,5.085076171875,-36.540000915527344,-0.35999998450279236,-19.3799991607666
1759864128587074800,5.09507470703125,-36.29999923706055,-0.47999998927116394,-19.5
1759864128597073700,5.10507373046875,-36.65999984741211,-0.29999998211860657,-19.619998931884766
1759864128607072300,5.115072265625,-37.07999801635742,-0.35999998450279236,-19.439998626708984
1759864128617071000,5.125071044921875,-37.07999801635742,-0.5399999618530273,-19.559999465942383
1759864128627069700,5.135069580078125,-37.07999801635742,-0.5399999618530273,-19.619998931884766
1759864128637068500,5.145068603515625,-36.599998474121094,0,-19.799999237060547
1759864128647067400,5.1550673828125,-36.41999816894531,-0.23999999463558197,-19.979999542236328
1759864128657066200,5.165066162109375,-36.05999755859375,0,-20.279998779296875
1759864128667065000,5.175065185546875,-36.119998931884766,0.11999999731779099,-20.219999313354492
1759864128677064000,5.18506396484375,-36.29999923706055,-0.23999999463558197,-19.799999237060547
1759864128687062800,5.195062744140625,-36.29999923706055,0.17999999225139618,-19.799999237060547
1759864128697062000,5.205061767578125,-36.540000915527344,0.5999999642372131,-19.3799991607666
1759864128707060700,5.215060791015625,-36.84000015258789,0.7799999713897705,-18.959999084472656
1759864128717059800,5.225059814453125,-36.84000015258789,1.1399999856948853,-19.020000457763672
1759864128727059000,5.235058837890625,-36.71999740600586,1.0199999809265137,-19.19999885559082
1759864128737057800,5.245057861328125,-36.959999084472656,0.8999999761581421,-19.3799991607666
1759864128747057000,5.255056884765625,-36.89999771118164,0.5399999618530273,-19.739999771118164
1759864128757056000,5.265055908203125,-37.13999938964844,0.23999999463558197,-19.799999237060547
1759864128767055000,5.27505517578125,-37.20000076293945,0.23999999463558197,-19.619998931884766
1759864128777054200,5.28505419921875,-36.540000915527344,-0.17999999225139618,-19.619998931884766
1759864128787053300,5.29505322265625,-36.05999755859375,-0.35999998450279236,-19.260000228881836
1759864128797052400,5.305052490234375,-35.7599983215332,-0.29999998211860657,-19.139999389648438
1759864128807051500,5.315051513671875,-35.880001068115234,-0.5399999618530273,-19.3799991607666
1759864128817050600,5.325050537109375,-36.36000061035156,-0.6599999666213989,-19.559999465942383
1759864128827049700,5.3350498046875,-36.959999084472656,-0.7199999690055847,-19.68000030517578
1759864128837048800,5.345048828125,-36.84000015258789,-1.0199999809265137,-19.85999870300293
1759864128847048000,5.3550478515625,-37.02000045776367,-1.0199999809265137,-19.5
1759864128857047000,5.365047119140625,-37.02000045776367,-0.6599999666213989,-19.139999389648438
1759864128867046000,5.3750458984375,-37.20000076293945,-0.5399999618530273,-19.260000228881836
1759864128877044500,5.38504443359375,-36.89999771118164,0,-19.079999923706055
1759864128887042800,5.395042724609375,-36.89999771118164,0.41999998688697815,-19.020000457763672
1759864128907039500,5.41503955078125,-36.599998474121094,0.6599999666213989,-18.84000015258789
1759864128917038600,5.42503857421875,-37.02000045776367,0.5999999642372131,-18.84000015258789
1759864128927037700,5.43503759765625,-36.65999984741211,0.7199999690055847,-19.020000457763672
1759864128937036800,5.445036865234375,-37.07999801635742,0.5399999618530273,-19.020000457763672
1759864128947035600,5.45503564453125,-36.89999771118164,0.7199999690055847,-19.020000457763672
1759864128957034800,5.46503466796875,-37.07999801635742,0.5999999642372131,-18.899999618530273
1759864128967033300,5.475033447265625,-37.20000076293945,0.5399999618530273,-18.84000015258789
1759864128977032200,5.4850322265625,-36.959999084472656,0.6599999666213989,-19.079999923706055
1759864128987031000,5.495031005859375,-37.20000076293945,0.7199999690055847,-19.020000457763672
1759864128997030000,5.50502978515625,-36.89999771118164,0.47999998927116394,-19.139999389648438
1759864129007028700,5.51502880859375,-37.07999801635742,0.9599999785423279,-19.020000457763672
1759864129017027600,5.525027587890625,-37.07999801635742,1.3799999952316284,-19.139999389648438
1759864129027026400,5.5350263671875,-37.07999801635742,1.3799999952316284,-19.68000030517578
1759864129037025300,5.545025390625,-37.31999969482422,1.7999999523162842,-19.68000030517578
1759864129047024000,5.555024169921875,-37.31999969482422,1.3799999952316284,-19.979999542236328
1759864129057022700,5.565022705078125,-36.959999084472656,1.6200000047683716,-19.920000076293945
1759864129067021300,5.575021240234375,-36.71999740600586,1.9199999570846558,-19.139999389648438
1759864129077020200,5.585020263671875,-36.36000061035156,1.8600000143051147,-19.139999389648438
1759864129087018800,5.595018798828125,-36.599998474121094,2.0399999618530273,-18.600000381469727
1759864129097017600,5.605017578125,-36.89999771118164,2.1599998474121094,-17.8799991607666
1759864129107016400,5.615016357421875,-37.31999969482422,2.2799999713897705,-18
1759864129117015000,5.62501513671875,-37.79999923706055,2.700000047683716,-18
1759864129127014000,5.635013916015625,-37.439998626708984,3.5399999618530273,-18.65999984741211
1759864129137012500,5.645012451171875,-37.380001068115234,3.4800000190734863,-19.020000457763672
1759864129147011300,5.65501123046875,-37.02000045776367,3.7200000286102295,-18.959999084472656
1759864129157010200,5.66501025390625,-37.2599983215332,3.6599998474121094,-18.899999618530273
1759864129167009000,5.675009033203125,-37.55999755859375,3,-18.299999237060547
1759864129177008400,5.68500830078125,-37.68000030517578,2.759999990463257,-18.420000076293945
1759864129187007700,5.6950078125,-37.73999786376953,2.2799999713897705,-18.779998779296875
1759864129197007400,5.70500732421875,-37.07999801635742,2.4600000381469727,-18.959999084472656
1759864129207007000,5.715007080078125,-37.07999801635742,2.4600000381469727,-18.779998779296875
1759864129217005600,5.725005615234375,-37.20000076293945,2.5199999809265137,-18.959999084472656
1759864129227004400,5.73500439453125,-37.439998626708984,3.179999828338623,-18.84000015258789
1759864129237003300,5.745003173828125,-37.97999954223633,3.359999895095825,-18.600000381469727
1759864129247001900,5.755001953125,-37.619998931884766,3.4800000190734863,-18.899999618530273
1759864129257000700,5.765000732421875,-37.380001068115234,3.4800000190734863,-18.899999618530273
1759864129266999800,5.774999755859375,-36.959999084472656,2.879999876022339,-18.84000015258789
1759864129276998700,5.78499853515625,-37.31999969482422,2.759999990463257,-18.899999618530273
1759864129286997500,5.79499755859375,-37.86000061035156,2.6399998664855957,-18.779998779296875
1759864129296996000,5.80499609375,-38.040000915527344,2.6399998664855957,-18.420000076293945
1759864129306995000,5.814994873046875,-38.39999771118164,2.759999990463257,-18.299999237060547
1759864129316993500,5.82499365234375,-37.97999954223633,2.4600000381469727,-18.600000381469727
1759864129326992400,5.834992431640625,-37.5,2.6399998664855957,-18.719999313354492
1759864129336991200,5.8449912109375,-37.380001068115234,2.0399999618530273,-19.260000228881836
1759864129346989800,5.85498974609375,-37.20000076293945,1.4399999380111694,-19.799999237060547
1759864129356988700,5.86498876953125,-37.439998626708984,1.4399999380111694,-19.739999771118164
1759864129366987300,5.8749873046875,-37.73999786376953,1.2599999904632568,-19.739999771118164
1759864129376986000,5.884986083984375,-38.34000015258789,1.4399999380111694,-19.619998931884766
1759864129386985000,5.89498486328125,-38.15999984741211,1.4399999380111694,-19.559999465942383
1759864129396983600,5.904983642578125,-37.86000061035156,1.3799999952316284,-19.079999923706055
1759864129406981600,5.914981689453125,-37.55999755859375,1.5,-19.3799991607666
1759864129416980500,5.92498046875,-37.07999801635742,1.6200000047683716,-19.260000228881836
1759864129426979000,5.93497900390625,-37.20000076293945,2.5199999809265137,-19.020000457763672
1759864129436978000,5.94497802734375,-36.71999740600586,2.5799999237060547,-19.559999465942383
1759864129446976500,5.9549765625,-36.89999771118164,2.5199999809265137,-19.5
1759864129456975000,5.96497509765625,-37.02000045776367,2.5799999237060547,-19.5
1759864129466974000,5.974973876953125,-36.959999084472656,2.3999998569488525,-19.559999465942383
1759864129476972500,5.98497265625,-37.380001068115234,2.4600000381469727,-19.5
1759864129486971400,5.994971435546875,-37.55999755859375,2.5799999237060547,-19.3799991607666
1759864129496970200,6.00497021484375,-37.55999755859375,2.3399999141693115,-19.68000030517578
1759864129506968800,6.01496875,-37.91999816894531,1.8600000143051147,-19.799999237060547
1759864129516967700,6.0249677734375,-37.97999954223633,2.2200000286102295,-20.03999900817871
1759864129526966500,6.034966552734375,-37.68000030517578,2.700000047683716,-20.399999618530273
1759864129536965000,6.044965087890625,-37.5,3.299999952316284,-20.34000015258789
1759864129546964000,6.0549638671875,-37.07999801635742,3.5399999618530273,-20.219999313354492
1759864129556962600,6.064962646484375,-37.380001068115234,3.4800000190734863,-19.979999542236328
1759864129566961400,6.07496142578125,-37.619998931884766,2.700000047683716,-19.619998931884766
1759864129576960300,6.084960205078125,-37.619998931884766,2.1599998474121094,-19.619998931884766
1759864129586958800,6.094958740234375,-37.79999923706055,2.0399999618530273,-19.68000030517578
1759864129596957700,6.104957763671875,-37.439998626708984,1.9799998998641968,-19.799999237060547
1759864129606956300,6.114956298828125,-37.02000045776367,2.3999998569488525,-20.03999900817871
1759864129616955100,6.124955078125,-37.20000076293945,2.6399998664855957,-20.03999900817871
1759864129626954000,6.1349541015625,-37.2599983215332,3.179999828338623,-20.100000381469727
1759864129636952600,6.14495263671875,-37.31999969482422,3.059999942779541,-20.15999984741211
1759864129646951400,6.154951416015625,-37.5,3.059999942779541,-19.920000076293945
1759864129656950300,6.1649501953125,-37.31999969482422,3.299999952316284,-19.979999542236328
1759864129666948900,6.174948974609375,-37.02000045776367,3.119999885559082,-20.15999984741211
1759864129676947700,6.18494775390625,-36.540000915527344,3.059999942779541,-20.15999984741211
1759864129686946600,6.194946533203125,-36.71999740600586,3.5399999618530273,-20.100000381469727
1759864129696945200,6.204945068359375,-36.89999771118164,3.119999885559082,-20.03999900817871
1759864129706944500,6.214944580078125,-37.20000076293945,3.119999885559082,-19.68000030517578
1759864129716943400,6.224943359375,-37.68000030517578,3.359999895095825,-19.439998626708984
1759864129726942200,6.234942138671875,-37.380001068115234,3.419999837875366,-19.559999465942383
1759864129736940800,6.24494091796875,-37.439998626708984,3.9599997997283936,-19.5
1759864129746939600,6.254939697265625,-37.619998931884766,4.019999980926514,-20.100000381469727
1759864129756938500,6.2649384765625,-37.439998626708984,4.380000114440918,-20.03999900817871
1759864129766937300,6.274937255859375,-37.91999816894531,3.8399999141693115,-20.219999313354492
1759864129776936400,6.2849365234375,-38.040000915527344,3.7200000286102295,-20.219999313354492
1759864129786935300,6.294935302734375,-37.97999954223633,3.179999828338623,-19.799999237060547
1759864129796934100,6.30493408203125,-37.97999954223633,2.700000047683716,-19.920000076293945
1759864129806933200,6.314933349609375,-37.91999816894531,3.119999885559082,-19.85999870300293
1759864129816932000,6.32493212890625,-37.5,2.700000047683716,-20.219999313354492
1759864129826931200,6.33493115234375,-37.20000076293945,2.700000047683716,-20.639999389648438
1759864129836930300,6.344930419921875,-37.380001068115234,2.2799999713897705,-20.520000457763672
1759864129846929400,6.354929443359375,-37.07999801635742,1.6200000047683716,-20.34000015258789
1759864129866927400,6.37492724609375,-37.380001068115234,1.559999942779541,-19.85999870300293
1759864129876925700,6.38492578125,-37.2599983215332,1.6799999475479126,-19.979999542236328
1759864129886924000,6.394924072265625,-37.31999969482422,1.6799999475479126,-20.219999313354492
1759864129896923400,6.40492333984375,-37.2599983215332,1.4399999380111694,-19.979999542236328
1759864129906921500,6.41492138671875,-37.07999801635742,1.6200000047683716,-19.559999465942383
1759864129916920600,6.424920654296875,-37.07999801635742,1.5,-19.739999771118164
1759864129926919400,6.43491943359375,-37.13999938964844,1.5,-19.68000030517578
1759864129936918300,6.444918212890625,-37.439998626708984,1.5,-19.559999465942383
1759864129946917400,6.45491748046875,-37.439998626708984,1.2599999904632568,-20.15999984741211
1759864129956916500,6.46491650390625,-37.20000076293945,1.6200000047683716,-19.799999237060547
1759864129966914800,6.474914794921875,-37.02000045776367,1.7999999523162842,-20.03999900817871
1759864129976914000,6.484913818359375,-36.779998779296875,1.7400000095367432,-20.639999389648438
1759864129986912800,6.494912841796875,-36.779998779296875,2.1599998474121094,-20.219999313354492
1759864129996911900,6.504911865234375,-37.2599983215332,1.9199999570846558,-20.100000381469727
1759864130006911000,6.514910888671875,-37.68000030517578,1.9199999570846558,-20.03999900817871
1759864130016910000,6.52491015625,-37.439998626708984,2.4600000381469727,-19.619998931884766
1759864130026909200,6.5349091796875,-38.099998474121094,2.3399999141693115,-19.799999237060547
1759864130036908300,6.544908203125,-38.52000045776367,2.4600000381469727,-19.920000076293945
1759864130046907100,6.5549072265625,-38.34000015258789,2.4600000381469727,-19.5
1759864130056906200,6.56490625,-38.57999801635742,2.3999998569488525,-19.68000030517578
1759864130066905000,6.574905029296875,-38.87999725341797,2.3999998569488525,-19.439998626708984
1759864130076904000,6.584904052734375,-38.279998779296875,2.759999990463257,-19.559999465942383
1759864130086902800,6.59490283203125,-38.279998779296875,3,-19.5
1759864130096901600,6.604901611328125,-38.15999984741211,2.759999990463257,-19.739999771118164
1759864130106900500,6.614900390625,-37.619998931884766,3.059999942779541,-20.15999984741211
1759864130116899300,6.6248994140625,-37.68000030517578,3,-20.399999618530273
1759864130126898000,6.63489794921875,-37.31999969482422,2.759999990463257,-20.520000457763672
1759864130136896800,6.644896728515625,-37.68000030517578,2.5199999809265137,-20.459999084472656
1759864130146895400,6.654895263671875,-37.68000030517578,2.700000047683716,-19.799999237060547
1759864130156894200,6.664894287109375,-37.86000061035156,2.700000047683716,-19.260000228881836
1759864130166892800,6.674892822265625,-38.34000015258789,2.700000047683716,-19.3799991607666
1759864130176892400,6.684892333984375,-38.21999740600586,3.059999942779541,-19.139999389648438
1759864130186891800,6.694891845703125,-38.459999084472656,2.4600000381469727,-19.979999542236328
1759864130196890400,6.704890380859375,-37.79999923706055,2.759999990463257,-20.399999618530273
1759864130206890000,6.714889892578125,-37.73999786376953,2.819999933242798,-20.100000381469727
1759864130216888800,6.724888916015625,-37.91999816894531,2.93999981880188,-20.100000381469727
1759864130226887700,6.7348876953125,-37.5,3.359999895095825,-19.739999771118164
1759864130236886500,6.744886474609375,-38.15999984741211,3.119999885559082,-19.799999237060547
1759864130246885400,6.754885498046875,-38.279998779296875,3.179999828338623,-20.279998779296875
1759864130256884000,6.764884033203125,-38.34000015258789,3.359999895095825,-20.03999900817871
1759864130266883600,6.774883544921875,-38.21999740600586,3.359999895095825,-19.68000030517578
1759864130276882200,6.784882080078125,-38.21999740600586,2.819999933242798,-19.559999465942383
1759864130286881000,6.794881103515625,-37.79999923706055,2.700000047683716,-19.439998626708984
1759864130296879900,6.8048798828125,-37.20000076293945,2.6399998664855957,-19.739999771118164
1759864130306878500,6.81487841796875,-37.20000076293945,2.5799999237060547,-19.979999542236328
1759864130316877300,6.824877197265625,-37.31999969482422,2.819999933242798,-19.68000030517578
1759864130326876000,6.8348759765625,-38.040000915527344,3,-19.3799991607666
1759864130336874800,6.844874755859375,-38.57999801635742,2.700000047683716,-18.84000015258789
1759864130346873600,6.85487353515625,-39.119998931884766,2.93999981880188,-18.779998779296875
1759864130356872200,6.8648720703125,-39,2.759999990463257,-18.719999313354492
1759864130366871000,6.87487109375,-38.57999801635742,2.3399999141693115,-18.719999313354492
1759864130376870000,6.884869873046875,-38.279998779296875,2.3999998569488525,-19.139999389648438
1759864130386868500,6.894868408203125,-37.97999954223633,2.5199999809265137,-19.260000228881836
1759864130396867300,6.904867431640625,-37.86000061035156,3.299999952316284,-19.3799991607666
1759864130406866200,6.9148662109375,-37.73999786376953,3.5999999046325684,-19.3799991607666
1759864130416864800,6.92486474609375,-37.79999923706055,3.4800000190734863,-19.139999389648438
1759864130426863600,6.934863525390625,-37.439998626708984,3.7200000286102295,-18.65999984741211
1759864130436862200,6.9448623046875,-37.13999938964844,3.359999895095825,-18.959999084472656
1759864130446861000,6.954861083984375,-37.55999755859375,3.299999952316284,-18.719999313354492
1759864130456859600,6.964859619140625,-37.55999755859375,3.299999952316284,-18.719999313354492
1759864130466858500,6.9748583984375,-37.97999954223633,2.819999933242798,-18.959999084472656
1759864130476857300,6.984857421875,-38.459999084472656,2.3399999141693115,-18.84000015258789
1759864130486856000,6.99485595703125,-38.34000015258789,2.2200000286102295,-19.139999389648438
1759864130496854800,7.004854736328125,-38.15999984741211,2.2799999713897705,-18.899999618530273
1759864130506853600,7.014853515625,-37.91999816894531,2.3999998569488525,-19.079999923706055
1759864130516852200,7.024852294921875,-37.73999786376953,2.2200000286102295,-19.31999969482422
1759864130526851000,7.03485107421875,-37.86000061035156,2.0999999046325684,-19.559999465942383
1759864130536849700,7.044849609375,-37.97999954223633,2.2200000286102295,-20.219999313354492
1759864130546848500,7.0548486328125,-38.099998474121094,1.9799998998641968,-20.34000015258789
1759864130556847000,7.06484716796875,-37.91999816894531,2.2200000286102295,-20.03999900817871
1759864130566846000,7.074845947265625,-37.619998931884766,2.3399999141693115,-20.279998779296875
1759864130576844500,7.084844482421875,-37.55999755859375,2.2799999713897705,-20.34000015258789
1759864130586843100,7.094843017578125,-37.439998626708984,1.9799998998641968,-20.579999923706055
1759864130596842000,7.104842041015625,-37.5,2.0999999046325684,-21.239999771118164
1759864130606840800,7.1148408203125,-37.55999755859375,2.2200000286102295,-20.760000228881836
1759864130616839400,7.12483935546875,-37.97999954223633,2.3999998569488525,-21
1759864130626838300,7.13483837890625,-38.040000915527344,2.2200000286102295,-21.239999771118164
1759864130636837000,7.144837158203125,-38.39999771118164,2.4600000381469727,-21.299999237060547
1759864130646835700,7.154835693359375,-38.040000915527344,2.5199999809265137,-21.779998779296875
1759864130656834600,7.16483447265625,-38.099998474121094,2.3999998569488525,-21.239999771118164
1759864130666833200,7.174833251953125,-38.099998474121094,2.5799999237060547,-20.579999923706055
1759864130676832000,7.18483203125,-37.97999954223633,2.3399999141693115,-20.219999313354492
1759864130686830800,7.194830810546875,-38.52000045776367,2.3399999141693115,-19.979999542236328
1759864130696829400,7.204829345703125,-37.91999816894531,2.0399999618530273,-20.69999885559082
1759864130706828300,7.214828369140625,-37.79999923706055,2.4600000381469727,-20.939998626708984
1759864130716827000,7.224826904296875,-37.86000061035156,2.5199999809265137,-20.939998626708984
1759864130726825700,7.23482568359375,-37.86000061035156,2.5199999809265137,-20.939998626708984
1759864130736824600,7.244824462890625,-38.040000915527344,2.6399998664855957,-20.219999313354492
1759864130746823200,7.2548232421875,-38.099998474121094,2.4600000381469727,-20.399999618530273
1759864130756822000,7.264822021484375,-37.86000061035156,2.700000047683716,-20.279998779296875
1759864130766820900,7.27482080078125,-37.86000061035156,3.119999885559082,-20.399999618530273
1759864130776819500,7.2848193359375,-37.31999969482422,3.419999837875366,-20.69999885559082
1759864130786818300,7.294818359375,-37.619998931884766,3.7799999713897705,-20.459999084472656
1759864130796817200,7.304817138671875,-37.79999923706055,3.8999998569488525,-20.399999618530273
1759864130806815700,7.314815673828125,-37.2599983215332,3.7799999713897705,-20.279998779296875
1759864130816814600,7.324814697265625,-38.099998474121094,4.019999980926514,-20.219999313354492
1759864130826813200,7.334813232421875,-37.55999755859375,4.440000057220459,-20.520000457763672
1759864130836812000,7.34481201171875,-37.73999786376953,4.440000057220459,-20.579999923706055
1759864130846811000,7.354810791015625,-38.15999984741211,4.559999942779541,-20.579999923706055
1759864130856809700,7.364809814453125,-38.099998474121094,4.259999752044678,-20.34000015258789
1759864130866808600,7.37480859375,-38.15999984741211,3.7799999713897705,-20.03999900817871
1759864130876807400,7.384807373046875,-37.73999786376953,3.7799999713897705,-19.920000076293945
1759864130886805500,7.394805419921875,-37.619998931884766,3.240000009536743,-19.739999771118164
1759864130906802400,7.414802490234375,-37.68000030517578,3,-19.68000030517578
1759864130916801300,7.42480126953125,-38.21999740600586,3,-19.68000030517578
1759864130926799600,7.434799560546875,-38.279998779296875,3.4800000190734863,-19.68000030517578
1759864130936797700,7.444797607421875,-38.52000045776367,3.5399999618530273,-19.3799991607666
1759864130946796000,7.454796142578125,-38.63999938964844,3.7200000286102295,-19.19999885559082
1759864130956795000,7.464794921875,-38.279998779296875,3.5999999046325684,-19.619998931884766
1759864130966793700,7.474793701171875,-38.39999771118164,3.5999999046325684,-19.799999237060547
1759864130976792600,7.48479248046875,-37.97999954223633,3.7799999713897705,-20.03999900817871
1759864130986791400,7.49479150390625,-37.91999816894531,3.299999952316284,-20.279998779296875
1759864130996790300,7.504790283203125,-38.040000915527344,3.119999885559082,-19.31999969482422
1759864131006789000,7.5147890625,-37.79999923706055,3.059999942779541,-19.139999389648438
1759864131016788000,7.5247880859375,-38.15999984741211,2.93999981880188,-19.139999389648438
1759864131026786800,7.534786865234375,-37.68000030517578,3.7799999713897705,-18.899999618530273
1759864131036785700,7.54478564453125,-37.79999923706055,4.199999809265137,-19.559999465942383
1759864131056783400,7.564783447265625,-38.39999771118164,3.5399999618530273,-19.139999389648438
1759864131066782200,7.5747822265625,-39,2.879999876022339,-19.139999389648438
1759864131076780300,7.5847802734375,-39.05999755859375,2.700000047683716,-19.020000457763672
1759864131086779100,7.594779052734375,-39.119998931884766,2.700000047683716,-19.31999969482422
1759864131096778000,7.604778076171875,-39.47999954223633,2.700000047683716,-18.84000015258789
1759864131106776800,7.61477685546875,-39.47999954223633,2.759999990463257,-18.600000381469727
1759864131116775700,7.624775634765625,-39.119998931884766,2.3999998569488525,-18.239999771118164
1759864131126774500,7.6347744140625,-38.52000045776367,2.6399998664855957,-18.35999870300293
1759864131136773400,7.6447734375,-38.39999771118164,2.93999981880188,-19.020000457763672
1759864131146772200,7.654772216796875,-37.79999923706055,3.179999828338623,-19.260000228881836
1759864131156771000,7.66477099609375,-38.279998779296875,3.179999828338623,-19.619998931884766
1759864131166770000,7.67477001953125,-38.87999725341797,3.299999952316284,-19.31999969482422
1759864131176768500,7.6847685546875,-38.459999084472656,3.179999828338623,-19.260000228881836
1759864131186768000,7.694767822265625,-38.87999725341797,2.759999990463257,-18.959999084472656
1759864131196767500,7.704767578125,-38.63999938964844,2.759999990463257,-18.719999313354492
1759864131206766300,7.714766357421875,-38.34000015258789,2.3399999141693115,-19.19999885559082
1759864131216765000,7.724764892578125,-38.52000045776367,2.2799999713897705,-19.139999389648438
1759864131226764000,7.734763916015625,-38.57999801635742,2.700000047683716,-19.559999465942383
1759864131236763600,7.744763671875,-38.70000076293945,3.059999942779541,-19.739999771118164
1759864131246763000,7.754762939453125,-38.459999084472656,3.179999828338623,-19.559999465942383
1759864131256761900,7.764761962890625,-38.52000045776367,3.4800000190734863,-19.19999885559082
1759864131266760700,7.7747607421875,-38.7599983215332,3.419999837875366,-19.3799991607666
1759864131276759300,7.78475927734375,-38.87999725341797,3.5399999618530273,-19.5
1759864131286758100,7.794758056640625,-38.939998626708984,3.8399999141693115,-19.559999465942383
1759864131296757000,7.804757080078125,-38.939998626708984,3.7799999713897705,-19.85999870300293
1759864131306755600,7.814755615234375,-38.87999725341797,3.7799999713897705,-20.03999900817871
1759864131316754400,7.82475439453125,-38.34000015258789,3.5399999618530273,-20.219999313354492
1759864131326753300,7.834753173828125,-38.70000076293945,3.7799999713897705,-20.219999313354492
1759864131336751900,7.844751953125,-39,3.7799999713897705,-20.579999923706055
1759864131346750700,7.854750732421875,-39.119998931884766,3.8399999141693115,-20.459999084472656
1759864131356749300,7.864749267578125,-39.119998931884766,4.139999866485596,-20.219999313354492
1759864131366748200,7.874748046875,-38.939998626708984,3.6599998474121094,-20.03999900817871
1759864131376747500,7.88474755859375,-38.459999084472656,3.8999998569488525,-19.799999237060547
1759864131386746400,7.894746337890625,-37.91999816894531,4.019999980926514,-19.799999237060547
1759864131396745200,7.9047451171875,-37.97999954223633,4.019999980926514,-19.559999465942383
1759864131406743800,7.914743896484375,-37.73999786376953,3.7799999713897705,-19.559999465942383
1759864131416742700,7.92474267578125,-37.439998626708984,3.359999895095825,-19.799999237060547
1759864131426741500,7.934741455078125,-37.5,3.059999942779541,-19.739999771118164
1759864131436773400,7.9447734375,-37.68000030517578,2.6399998664855957,-19.920000076293945
1759864131446805500,7.954805419921875,-37.73999786376953,3.119999885559082,-20.100000381469727
1759864131456837600,7.964837646484375,-38.52000045776367,3.299999952316284,-19.920000076293945
1759864131476901600,7.984901611328125,-38.87999725341797,3.7200000286102295,-19.920000076293945
1759864131486933800,7.994933837890625,-39.18000030517578,3.7799999713897705,-19.68000030517578
1759864131496966000,8.0049658203125,-38.70000076293945,4.139999866485596,-19.5
1759864131506998000,8.014998046875,-38.87999725341797,4.440000057220459,-19.260000228881836
1759864131517030100,8.025030029296875,-38.7599983215332,3.8999998569488525,-18.899999618530273
1759864131527062300,8.035062255859375,-38.52000045776367,3.8399999141693115,-19.139999389648438
1759864131537094400,8.045094482421876,-39,3.240000009536743,-19.3799991607666
1759864131547126300,8.055126220703125,-38.52000045776367,3.4800000190734863,-19.739999771118164
1759864131557158400,8.065158447265626,-38.34000015258789,4.079999923706055,-19.799999237060547
1759864131567190500,8.0751904296875,-38.459999084472656,3.9599997997283936,-19.85999870300293
1759864131577222400,8.085222412109376,-38.15999984741211,4.859999656677246,-20.15999984741211
1759864131587254500,8.095254638671875,-38.34000015258789,4.619999885559082,-20.03999900817871
1759864131597286700,8.10528662109375,-38.39999771118164,4.5,-20.459999084472656
1759864131607318500,8.115318603515625,-38.15999984741211,4.980000019073486,-20.15999984741211
1759864131617350700,8.1253505859375,-38.21999740600586,4.5,-19.920000076293945
1759864131627382800,8.1353828125,-38.099998474121094,4.199999809265137,-20.279998779296875
1759864131637414700,8.14541455078125,-38.34000015258789,4.5,-20.15999984741211
1759864131647446800,8.15544677734375,-38.81999969482422,4.440000057220459,-20.219999313354492
1759864131657479000,8.16547900390625,-38.70000076293945,4.619999885559082,-20.15999984741211
1759864131667511000,8.175510986328124,-38.57999801635742,5.039999961853027,-19.739999771118164
1759864131677543000,8.18554296875,-38.52000045776367,5.039999961853027,-20.03999900817871
1759864131687575000,8.195574951171874,-38.040000915527344,5.400000095367432,-20.459999084472656
1759864131697607200,8.205607177734375,-38.279998779296875,5.579999923706055,-20.69999885559082
1759864131707639300,8.215639404296875,-38.459999084472656,5.759999752044678,-20.639999389648438
1759864131717671400,8.22567138671875,-38.52000045776367,5.819999694824219,-20.279998779296875
1759864131727703300,8.235703369140625,-38.57999801635742,5.21999979019165,-20.34000015258789
1759864131737702100,8.2457021484375,-38.39999771118164,5.21999979019165,-20.579999923706055
1759864131747701000,8.255700927734376,-38.52000045776367,5.400000095367432,-20.8799991607666
1759864131757699600,8.265699462890625,-38.52000045776367,5.639999866485596,-20.8799991607666
1759864131767698400,8.275698486328125,-38.279998779296875,5.87999963760376,-20.520000457763672
1759864131777697000,8.285697021484374,-38.099998474121094,5.699999809265137,-20.520000457763672
1759864131787695900,8.29569580078125,-37.97999954223633,5.460000038146973,-20.459999084472656
1759864131797694700,8.30569482421875,-37.68000030517578,5.279999732971191,-20.8799991607666
1759864131807693600,8.315693603515625,-38.099998474121094,5.400000095367432,-20.8799991607666
1759864131817692200,8.325692138671876,-38.459999084472656,5.579999923706055,-20.69999885559082
1759864131827691000,8.33569091796875,-38.279998779296875,5.639999866485596,-20.81999969482422
1759864131837689600,8.345689697265625,-38.57999801635742,5.400000095367432,-20.760000228881836
1759864131847688400,8.3556884765625,-38.21999740600586,5.460000038146973,-20.939998626708984
1759864131857687300,8.365687255859376,-37.91999816894531,5.579999923706055,-21.059999465942383
1759864131867686000,8.375685791015625,-38.15999984741211,5.460000038146973,-20.760000228881836
1759864131877684700,8.385684814453125,-38.099998474121094,5.699999809265137,-20.639999389648438
1759864131887682800,8.395682861328124,-37.86000061035156,5.699999809265137,-20.8799991607666
1759864131897680600,8.4056806640625,-37.86000061035156,5.639999866485596,-20.69999885559082
1759864131907678700,8.4156787109375,-37.55999755859375,5.759999752044678,-20.69999885559082
1759864131917677600,8.425677490234374,-37.55999755859375,5.579999923706055,-20.520000457763672
1759864131927676200,8.43567626953125,-37.91999816894531,4.679999828338623,-20.399999618530273
1759864131937674500,8.445674560546875,-37.73999786376953,4.679999828338623,-20.34000015258789
1759864131947673300,8.45567333984375,-37.79999923706055,4.679999828338623,-20.8799991607666
1759864131957672400,8.46567236328125,-37.55999755859375,4.799999713897705,-21.119998931884766
1759864131967671600,8.475671630859376,-37.73999786376953,5.279999732971191,-21
1759864131977670700,8.485670654296875,-38.040000915527344,4.980000019073486,-20.8799991607666
1759864131987669500,8.49566943359375,-38.099998474121094,4.799999713897705,-20.34000015258789
1759864131997668600,8.505668701171874,-38.21999740600586,4.679999828338623,-20.100000381469727
1759864132007667700,8.515667724609376,-38.21999740600586,5.039999961853027,-19.559999465942383
1759864132017666800,8.525666748046875,-37.97999954223633,5.519999980926514,-19.260000228881836
1759864132027666000,8.535666015625,-38.21999740600586,5.699999809265137,-19.260000228881836
1759864132037664800,8.545664794921874,-38.39999771118164,5.579999923706055,-19.31999969482422
1759864132047663900,8.555663818359376,-38.21999740600586,5.21999979019165,-19.139999389648438
1759864132057662700,8.565662841796875,-38.87999725341797,4.859999656677246,-19.020000457763672
1759864132067661800,8.575661865234375,-39.18000030517578,4.380000114440918,-18.959999084472656
1759864132077660700,8.58566064453125,-39.119998931884766,4.380000114440918,-18.959999084472656
1759864132087659800,8.59565966796875,-39.41999816894531,4.440000057220459,-19.260000228881836
1759864132097659000,8.605658935546876,-38.87999725341797,4.079999923706055,-19.439998626708984
1759864132107658000,8.615657958984375,-38.7599983215332,4.319999694824219,-19.31999969482422
1759864132117656800,8.62565673828125,-38.459999084472656,4.079999923706055,-18.84000015258789
1759864132127656000,8.635656005859374,-38.57999801635742,4.079999923706055,-18.719999313354492
1759864132137655000,8.645655029296876,-38.7599983215332,4.559999942779541,-18.899999618530273
1759864132147654100,8.655654052734375,-38.7599983215332,4.739999771118164,-18.959999084472656
1759864132157653200,8.6656533203125,-39.119998931884766,4.980000019073486,-19.3799991607666
1759864132167652400,8.67565234375,-38.87999725341797,5.039999961853027,-19.020000457763672
1759864132177651200,8.685651123046876,-38.52000045776367,4.799999713897705,-19.079999923706055
1759864132187651000,8.695651123046876,-38.7599983215332,4.559999942779541,-19.020000457763672
1759864132197651000,8.70565087890625,-38.939998626708984,4.559999942779541,-19.079999923706055
1759864132207650800,8.71565087890625,-39.119998931884766,4.859999656677246,-19.439998626708984
1759864132217649700,8.725649658203125,-39.41999816894531,5.159999847412109,-19.619998931884766
1759864132227648800,8.735648681640624,-39.23999786376953,5.639999866485596,-19.439998626708984
1759864132237647600,8.745647705078126,-39.47999954223633,5.639999866485596,-19.139999389648438
1759864132247646000,8.75564599609375,-39,5.339999675750732,-19.19999885559082
1759864132257643800,8.765643798828124,-39,5.279999732971191,-19.079999923706055
1759864132267641900,8.775641845703126,-38.939998626708984,5.159999847412109,-19.68000030517578
1759864132277640700,8.785640625,-38.21999740600586,4.920000076293945,-19.85999870300293
1759864132287639300,8.795639404296875,-38.39999771118164,4.859999656677246,-20.219999313354492
1759864132297638100,8.80563818359375,-38.7599983215332,4.799999713897705,-20.03999900817871
1759864132307636700,8.81563671875,-38.7599983215332,4.259999752044678,-19.85999870300293
1759864132317635600,8.825635498046875,-38.81999969482422,4.739999771118164,-19.68000030517578
1759864132327634400,8.835634521484375,-38.939998626708984,4.5,-19.68000030517578
1759864132337633000,8.845633056640626,-38.7599983215332,4.380000114440918,-19.5
1759864132347631600,8.855631591796875,-38.39999771118164,4.440000057220459,-19.739999771118164
1759864132357630700,8.865630615234375,-38.52000045776367,3.9599997997283936,-19.920000076293945
1759864132367629600,8.875629638671874,-38.52000045776367,4.019999980926514,-19.920000076293945
1759864132377628400,8.88562841796875,-38.57999801635742,3.5999999046325684,-20.100000381469727
1759864132387627000,8.895626953125,-38.57999801635742,3.6599998474121094,-20.100000381469727
1759864132397625900,8.9056259765625,-38.21999740600586,3.419999837875366,-19.979999542236328
1759864132407624700,8.915624755859374,-38.040000915527344,3.119999885559082,-19.619998931884766
1759864132417622500,8.92562255859375,-38.279998779296875,2.879999876022339,-19.799999237060547
1759864132427621400,8.935621337890625,-38.70000076293945,2.819999933242798,-19.68000030517578
1759864132437620200,8.9456201171875,-39.29999923706055,3.240000009536743,-19.68000030517578
1759864132447618800,8.955618896484374,-39.18000030517578,3.8399999141693115,-20.03999900817871
1759864132457617700,8.96561767578125,-38.39999771118164,4.079999923706055,-20.03999900817871
1759864132467616500,8.975616455078125,-38.15999984741211,3.8999998569488525,-19.68000030517578
1759864132477615000,8.985614990234374,-37.91999816894531,3.7799999713897705,-19.979999542236328
1759864132487614000,8.995614013671876,-38.040000915527344,3.5999999046325684,-19.31999969482422
1759864132497612500,9.005612548828125,-38.459999084472656,3.419999837875366,-19.3799991607666
1759864132507611400,9.015611328125,-38.459999084472656,3.5399999618530273,-19.619998931884766
1759864132517610200,9.0256103515625,-38.70000076293945,3.7200000286102295,-19.5
1759864132527608800,9.03560888671875,-38.52000045776367,4.199999809265137,-20.219999313354492
1759864132537608400,9.0456083984375,-38.099998474121094,4.619999885559082,-19.920000076293945
1759864132547607800,9.05560791015625,-38.34000015258789,4.739999771118164,-20.03999900817871
1759864132557607200,9.065607177734375,-38.15999984741211,4.739999771118164,-20.100000381469727
1759864132567606500,9.0756064453125,-38.52000045776367,4.559999942779541,-19.799999237060547
1759864132577605400,9.08560546875,-39.05999755859375,4.319999694824219,-19.979999542236328
1759864132587604200,9.095604248046875,-39,4.559999942779541,-19.5
1759864132597602800,9.105602783203125,-39.05999755859375,4.259999752044678,-19.020000457763672
1759864132607601700,9.1156015625,-39.119998931884766,4.139999866485596,-19.260000228881836
1759864132617600300,9.125600341796876,-38.81999969482422,4.199999809265137,-19.5
1759864132627599000,9.13559912109375,-38.63999938964844,3.7799999713897705,-20.03999900817871
1759864132637598000,9.145597900390625,-39,3.8399999141693115,-20.399999618530273
1759864132647596500,9.155596435546874,-39.23999786376953,3.179999828338623,-20.579999923706055
1759864132657595400,9.165595458984376,-38.81999969482422,3.179999828338623,-20.760000228881836
1759864132667594200,9.17559423828125,-39.05999755859375,3.299999952316284,-20.639999389648438
1759864132677592800,9.1855927734375,-39.119998931884766,3.5999999046325684,-20.69999885559082
1759864132687591700,9.195591796875,-38.39999771118164,3.7200000286102295,-20.459999084472656
1759864132697590300,9.20559033203125,-38.939998626708984,3.5999999046325684,-20.520000457763672
1759864132707589000,9.215589111328125,-39.05999755859375,3.5399999618530273,-20.579999923706055
1759864132717588500,9.22558837890625,-38.81999969482422,3.4800000190734863,-21
1759864132727587000,9.235587158203124,-39.05999755859375,4.019999980926514,-21.18000030517578
1759864132737586000,9.2455859375,-38.459999084472656,4.139999866485596,-21.18000030517578
1759864132747584500,9.25558447265625,-37.97999954223633,4.440000057220459,-21.35999870300293
1759864132757583400,9.265583251953124,-37.73999786376953,4.440000057220459,-20.579999923706055
1759864132767582000,9.27558203125,-37.619998931884766,4.559999942779541,-20.69999885559082
1759864132777580800,9.285580810546875,-38.040000915527344,4.739999771118164,-20.520000457763672
1759864132787579400,9.295579345703125,-37.97999954223633,4.799999713897705,-20.639999389648438
1759864132797578200,9.305578125,-37.97999954223633,4.799999713897705,-21.059999465942383
1759864132807577000,9.3155771484375,-37.79999923706055,4.380000114440918,-20.939998626708984
1759864132817575700,9.32557568359375,-37.55999755859375,4.319999694824219,-21
1759864132827574500,9.335574462890625,-37.619998931884766,4.5,-21.18000030517578
1759864132837573400,9.345573486328124,-37.68000030517578,4.319999694824219,-21.119998931884766
1759864132847572000,9.355572021484376,-37.79999923706055,4.380000114440918,-21.059999465942383
1759864132857570800,9.36557080078125,-38.34000015258789,4.859999656677246,-21
1759864132867569400,9.3755693359375,-38.939998626708984,4.859999656677246,-20.81999969482422
1759864132877568000,9.385568115234374,-39.18000030517578,5.21999979019165,-21
1759864132887566600,9.395566650390625,-39.29999923706055,5.400000095367432,-20.81999969482422
1759864132897565400,9.4055654296875,-38.939998626708984,4.679999828338623,-20.81999969482422
1759864132907564300,9.415564208984375,-38.57999801635742,4.380000114440918,-20.520000457763672
1759864132917563000,9.42556298828125,-38.70000076293945,3.7200000286102295,-20.279998779296875
1759864132927561700,9.435561767578125,-38.57999801635742,3.240000009536743,-20.279998779296875
1759864132937560600,9.445560546875,-38.939998626708984,3.119999885559082,-20.760000228881836
1759864132947559200,9.45555908203125,-38.7599983215332,2.879999876022339,-20.8799991607666
1759864132957558000,9.46555810546875,-38.70000076293945,2.879999876022339,-21.059999465942383
1759864132977555500,9.485555419921875,-38.7599983215332,2.700000047683716,-21
1759864132987554300,9.49555419921875,-38.81999969482422,2.3399999141693115,-20.8799991607666
1759864132997553200,9.50555322265625,-38.939998626708984,1.9799998998641968,-21.119998931884766
1759864133007552000,9.515552001953125,-38.70000076293945,1.4399999380111694,-21.18000030517578
1759864133017550800,9.52555078125,-38.279998779296875,1.559999942779541,-21.119998931884766
1759864133027549700,9.5355498046875,-38.7599983215332,1.6799999475479126,-21.84000015258789
1759864133037548500,9.545548583984376,-38.87999725341797,1.6200000047683716,-21.479999542236328
1759864133047547600,9.555547607421875,-38.63999938964844,1.7400000095367432,-21.53999900817871
1759864133057546500,9.56554638671875,-38.939998626708984,1.6200000047683716,-21
1759864133067545300,9.57554541015625,-38.459999084472656,1.5,-20.399999618530273
1759864133077544200,9.585544189453126,-38.21999740600586,1.4399999380111694,-20.639999389648438
1759864133087543000,9.59554296875,-38.7599983215332,1.6799999475479126,-20.69999885559082
1759864133097542000,9.6055419921875,-38.939998626708984,1.3799999952316284,-21.119998931884766
1759864133107540700,9.615540771484374,-39.18000030517578,1.0799999237060547,-21.35999870300293
1759864133117539600,9.62553955078125,-39.540000915527344,1.8600000143051147,-21.119998931884766
1759864133127538400,9.635538330078125,-39.599998474121094,1.9799998998641968,-21.059999465942383
1759864133137537300,9.645537353515625,-39.599998474121094,2.2799999713897705,-21.059999465942383
1759864133147536100,9.6555361328125,-39.47999954223633,2.3399999141693115,-20.579999923706055
1759864133157535000,9.665534912109376,-39.29999923706055,2.5199999809265137,-21.119998931884766
1759864133167533800,9.675533935546875,-39.47999954223633,2.4600000381469727,-21.119998931884766
1759864133177533200,9.685533203125,-39.540000915527344,2.6399998664855957,-21.299999237060547
1759864133207527400,9.71552734375,-38.939998626708984,3.359999895095825,-21.239999771118164
1759864133217526300,9.7255263671875,-39.119998931884766,3.359999895095825,-21.35999870300293
1759864133227525000,9.735525146484376,-38.70000076293945,3,-21.420000076293945
1759864133237524000,9.74552392578125,-39.540000915527344,3,-21.479999542236328
1759864133247522600,9.7555224609375,-39.65999984741211,2.700000047683716,-21.479999542236328
1759864133257521400,9.765521484375,-39.540000915527344,2.700000047683716,-21.299999237060547
1759864133267520300,9.775520263671876,-39.599998474121094,2.93999981880188,-21.53999900817871
1759864133277519000,9.78551904296875,-39.36000061035156,2.4600000381469727,-21.53999900817871
1759864133287518000,9.79551806640625,-39.599998474121094,2.5199999809265137,-21.119998931884766
1759864133297516800,9.805516845703124,-39.71999740600586,2.4600000381469727,-21.35999870300293
1759864133307515600,9.815515625,-39.47999954223633,2.2799999713897705,-21.119998931884766
1759864133317514200,9.82551416015625,-39.540000915527344,2.2799999713897705,-21.239999771118164
1759864133327513000,9.83551318359375,-39.119998931884766,1.6200000047683716,-21.35999870300293
1759864133337511700,9.84551171875,-38.939998626708984,1.5,-21.420000076293945
1759864133347510500,9.855510498046876,-39.119998931884766,0.9599999785423279,-21.600000381469727
1759864133357509000,9.865509033203125,-39.119998931884766,1.1399999856948853,-21.420000076293945
1759864133367508000,9.875508056640625,-39.18000030517578,1.9199999570846558,-21.899999618530273
1759864133377506600,9.885506591796876,-39.41999816894531,2.1599998474121094,-21.719999313354492
1759864133387505000,9.8955048828125,-39.41999816894531,2.6399998664855957,-21.779998779296875
1759864133397503500,9.90550341796875,-39,2.700000047683716,-21.84000015258789
1759864133407502300,9.91550244140625,-39.18000030517578,2.2799999713897705,-21.119998931884766
1759864133417501000,9.9255009765625,-39.18000030517578,1.9799998998641968,-21.65999984741211
1759864133427499000,9.9354990234375,-39.23999786376953,2.2200000286102295,-21.779998779296875
1759864133437497000,9.9454970703125,-39.29999923706055,2.3999998569488525,-22.260000228881836
1759864133447496000,9.955495849609376,-39.29999923706055,2.5799999237060547,-22.799999237060547
1759864133457494500,9.96549462890625,-38.70000076293945,3.059999942779541,-22.799999237060547
1759864133467493400,9.975493408203125,-38.34000015258789,3.059999942779541,-22.68000030517578
1759864133477492000,9.985491943359374,-38.34000015258789,3.240000009536743,-22.31999969482422
1759864133487491600,9.99549169921875,-37.91999816894531,3.179999828338623,-22.3799991607666
1759864133497491000,10.005490966796875,-38.040000915527344,3.059999942779541,-21.959999084472656
1759864133507490600,10.015490478515625,-38.34000015258789,2.819999933242798,-22.31999969482422
1759864133517489200,10.0254892578125,-38.63999938964844,2.819999933242798,-22.619998931884766
1759864133527488000,10.035488037109374,-39.119998931884766,2.93999981880188,-22.68000030517578
1759864133537486800,10.04548681640625,-39.36000061035156,2.3399999141693115,-23.15999984741211
1759864133547485700,10.055485595703125,-39.540000915527344,2.2200000286102295,-22.739999771118164
1759864133557484500,10.065484619140625,-39.41999816894531,1.4399999380111694,-22.799999237060547
1759864133567483400,10.0754833984375,-39.41999816894531,1.3199999332427979,-23.03999900817871
1759864133577482000,10.08548193359375,-39.71999740600586,1.559999942779541,-22.799999237060547
1759864133587480800,10.095480712890625,-39.599998474121094,1.0799999237060547,-22.85999870300293
1759864133597479400,10.1054794921875,-39.89999771118164,1.2599999904632568,-22.19999885559082
1759864133607478300,10.115478271484376,-39.89999771118164,1.3799999952316284,-22.19999885559082
1759864133617476900,10.125476806640625,-39.41999816894531,1.6200000047683716,-22.079999923706055
1759864133627475700,10.135475830078125,-39.779998779296875,2.2200000286102295,-22.079999923706055
1759864133637474600,10.145474609375,-39.540000915527344,2.5799999237060547,-22.920000076293945
1759864133647473200,10.15547314453125,-39.47999954223633,2.5199999809265137,-22.85999870300293
1759864133657472000,10.165471923828125,-39.84000015258789,2.3999998569488525,-23.219999313354492
1759864133667470800,10.175470947265625,-39.599998474121094,2.0999999046325684,-23.219999313354492
1759864133677469400,10.185469482421874,-39.89999771118164,1.8600000143051147,-23.100000381469727
1759864133687468800,10.19546875,-40.02000045776367,1.6799999475479126,-22.920000076293945
1759864133697467600,10.205467529296875,-40.20000076293945,1.7400000095367432,-22.619998931884766
1759864133707466200,10.21546630859375,-40.07999801635742,1.8600000143051147,-22.559999465942383
1759864133717465000,10.225465087890624,-40.31999969482422,1.7999999523162842,-22.559999465942383
1759864133727464400,10.23546435546875,-39.959999084472656,1.6799999475479126,-22.139999389648438
1759864133737463800,10.2454638671875,-39.119998931884766,1.6200000047683716,-22.439998626708984
1759864133747462700,10.255462646484375,-39.119998931884766,1.6799999475479126,-22.68000030517578
1759864133757461200,10.265461181640624,-38.70000076293945,1.9799998998641968,-22.85999870300293
1759864133767460000,10.275460205078126,-38.52000045776367,2.6399998664855957,-23.219999313354492
1759864133777458700,10.285458740234375,-38.87999725341797,3.179999828338623,-23.279998779296875
1759864133787457500,10.29545751953125,-39,3.179999828338623,-23.399999618530273
1759864133797456400,10.305456298828124,-39.23999786376953,3.359999895095825,-23.51999855041504
1759864133807455000,10.315455078125,-39.65999984741211,3.059999942779541,-23.69999885559082
1759864133817453600,10.32545361328125,-40.02000045776367,2.6399998664855957,-23.51999855041504
1759864133827452400,10.335452392578125,-39.89999771118164,2.5799999237060547,-23.15999984741211
1759864133837451000,10.345450927734374,-39.84000015258789,1.9799998998641968,-23.219999313354492
1759864133847449900,10.355449951171876,-39.71999740600586,1.9199999570846558,-23.219999313354492
1759864133857448700,10.36544873046875,-39.540000915527344,2.2799999713897705,-23.399999618530273
1759864133867447300,10.375447265625,-39.71999740600586,2.5799999237060547,-23.69999885559082
1759864133877446100,10.385446044921874,-39.779998779296875,3.059999942779541,-23.69999885559082
1759864133887445000,10.395445068359376,-40.20000076293945,3.5399999618530273,-23.939998626708984
1759864133897443600,10.405443603515625,-40.619998931884766,3.5399999618530273,-23.81999969482422
1759864133907442400,10.4154423828125,-40.07999801635742,3.419999837875366,-23.939998626708984
1759864133917441300,10.425441162109376,-40.02000045776367,3.5399999618530273,-23.579999923706055
1759864133927440000,10.43543994140625,-39.89999771118164,3.299999952316284,-23.34000015258789
1759864133937438700,10.445438720703125,-39.36000061035156,3,-23.279998779296875
1759864133947437300,10.455437255859374,-39.65999984741211,3.359999895095825,-23.8799991607666
1759864133957436200,10.465436279296876,-39.84000015258789,3.179999828338623,-24.059999465942383
1759864133967435000,10.47543505859375,-39.41999816894531,2.759999990463257,-24.059999465942383
1759864133977433600,10.48543359375,-39.47999954223633,2.759999990463257,-24.35999870300293
1759864133987432400,10.495432373046874,-39.23999786376953,2.2799999713897705,-23.8799991607666
1759864133997431300,10.505431396484376,-38.939998626708984,1.9799998998641968,-23.939998626708984
1759864134007430000,10.515429931640625,-39.18000030517578,2.3399999141693115,-24
1759864134017428700,10.5254287109375,-38.939998626708984,2.3399999141693115,-24.18000030517578
1759864134027427600,10.535427490234374,-39.18000030517578,2.2799999713897705,-24
1759864134037426400,10.545426513671876,-38.939998626708984,2.5199999809265137,-24.53999900817871
1759864134047425300,10.55542529296875,-39,1.8600000143051147,-24.779998779296875
1759864134057424100,10.565424072265625,-39.41999816894531,1.5,-24.959999084472656
1759864134067423000,10.575423095703124,-39.65999984741211,1.0799999237060547,-24.959999084472656
1759864134077422000,10.585422119140626,-40.07999801635742,0.29999998211860657,-24.779998779296875
1759864134087421000,10.5954208984375,-39.959999084472656,0.05999999865889549,-24.719999313354492
1759864134097420000,10.605419921875,-39.23999786376953,-0.41999998688697815,-24.420000076293945
1759864134107419100,10.615419189453124,-39,-0.5399999618530273,-24.719999313354492
1759864134117418200,10.625418212890626,-38.34000015258789,-0.35999998450279236,-24.65999984741211
1759864134127417300,10.635417236328125,-38.459999084472656,-0.23999999463558197,-24.959999084472656
1759864134137416400,10.64541650390625,-38.70000076293945,0,-25.3799991607666
1759864134147415600,10.65541552734375,-38.70000076293945,0.05999999865889549,-25.619998931884766
1759864134157414700,10.66541455078125,-39.119998931884766,0.23999999463558197,-25.799999237060547
1759864134167413800,10.675413818359376,-39.05999755859375,0.5999999642372131,-25.68000030517578
1759864134177412900,10.685412841796875,-39.05999755859375,0.7199999690055847,-25.31999969482422
1759864134187412000,10.695411865234375,-38.87999725341797,0.7799999713897705,-25.5
1759864134197410300,10.705410400390624,-38.70000076293945,0.7199999690055847,-25.559999465942383
1759864134207408400,10.715408447265625,-38.39999771118164,0.41999998688697815,-25.5
1759864134217406700,10.72540673828125,-38.459999084472656,0.7199999690055847,-25.739999771118164
1759864134227404800,10.73540478515625,-38.7599983215332,0.5999999642372131,-25.31999969482422
1759864134237404200,10.745404052734376,-38.63999938964844,0.7199999690055847,-25.139999389648438
1759864134247403300,10.7554033203125,-38.39999771118164,1.0799999237060547,-25.139999389648438
1759864134257401900,10.76540185546875,-38.70000076293945,0.23999999463558197,-24.959999084472656
1759864134267401000,10.77540087890625,-38.52000045776367,0.5999999642372131,-25.260000228881836
1759864134277400000,10.785400146484376,-38.459999084472656,0.41999998688697815,-25.5
1759864134287399200,10.795399169921875,-38.87999725341797,0.11999999731779099,-25.739999771118164
1759864134297398000,10.80539794921875,-39.119998931884766,1.0799999237060547,-25.920000076293945
1759864134307397000,10.815397216796875,-39.29999923706055,1.0199999809265137,-26.03999900817871
1759864134317396200,10.825396240234374,-39.599998474121094,1.4399999380111694,-25.979999542236328
1759864134327395300,10.835395263671876,-39.599998474121094,1.3799999952316284,-25.979999542236328
1759864134337394400,10.84539453125,-39.05999755859375,1.1999999284744263,-26.099998474121094
1759864134347393300,10.855393310546875,-38.87999725341797,1.3199999332427979,-25.85999870300293
1759864134357392100,10.86539208984375,-38.939998626708984,1.1399999856948853,-25.5
1759864134367391000,10.875390869140626,-39,1.559999942779541,-25.31999969482422
1759864134377389800,10.885389892578125,-39.18000030517578,1.3799999952316284,-24.779998779296875
1759864134387388200,10.89538818359375,-39.05999755859375,1.4399999380111694,-25.079999923706055
1759864134397386800,10.90538671875,-38.87999725341797,1.1999999284744263,-25.68000030517578
1759864134407385600,10.915385498046875,-38.52000045776367,0.9599999785423279,-26.15999984741211
1759864134417384400,10.925384521484375,-38.099998474121094,1.5,-26.81999969482422
1759864134427383000,10.935383056640624,-38.099998474121094,1.3799999952316284,-27
1759864134437382000,10.9453818359375,-38.459999084472656,1.5,-27.18000030517578
1759864134447380500,10.95538037109375,-38.459999084472656,2.0999999046325684,-27.239999771118164
1759864134457379300,10.96537939453125,-38.63999938964844,1.8600000143051147,-27.479999542236328
1759864134467378000,10.9753779296875,-38.63999938964844,1.9799998998641968,-27.18000030517578
1759864134477376800,10.985376708984376,-38.279998779296875,1.9199999570846558,-27.059999465942383
1759864134487375600,10.995375732421875,-38.34000015258789,2.0999999046325684,-26.939998626708984
1759864134497375000,11.005375,-38.87999725341797,2.1599998474121094,-26.219999313354492
1759864134507374600,11.01537451171875,-39.18000030517578,2.0399999618530273,-26.219999313354492
1759864134517374200,11.025374267578124,-38.81999969482422,2.5199999809265137,-25.85999870300293
1759864134527373800,11.035373779296876,-38.87999725341797,2.5199999809265137,-26.099998474121094
1759864134537372400,11.045372314453125,-38.70000076293945,2.5799999237060547,-26.279998779296875
1759864134547371000,11.05537109375,-38.459999084472656,2.700000047683716,-26.399999618530273
1759864134557370600,11.06537060546875,-38.87999725341797,2.6399998664855957,-26.51999855041504
1759864134567369200,11.075369140625,-38.81999969482422,2.819999933242798,-26.219999313354492
1759864134577368000,11.0853681640625,-38.57999801635742,2.5799999237060547,-26.03999900817871
1759864134587366700,11.09536669921875,-38.52000045776367,2.819999933242798,-25.559999465942383
1759864134597365500,11.105365478515624,-38.7599983215332,2.819999933242798,-25.619998931884766
1759864134607364400,11.1153642578125,-38.63999938964844,2.4600000381469727,-25.19999885559082
1759864134617363000,11.125363037109375,-38.7599983215332,2.879999876022339,-25.619998931884766
1759864134627361800,11.13536181640625,-39,2.93999981880188,-26.399999618530273
1759864134637360600,11.145360595703124,-38.87999725341797,3,-26.34000015258789
1759864134647359200,11.155359130859376,-39.29999923706055,2.3999998569488525,-26.81999969482422
1759864134657358000,11.165358154296875,-39.36000061035156,2.2799999713897705,-26.399999618530273
1759864134667357000,11.17535693359375,-39.23999786376953,1.7400000095367432,-26.15999984741211
1759864134677355500,11.18535546875,-39.36000061035156,1.1999999284744263,-26.099998474121094
1759864134687355100,11.195355224609376,-38.939998626708984,1.1999999284744263,-25.920000076293945
1759864134697353700,11.205353759765625,-39,0.8999999761581421,-26.03999900817871
1759864134707352600,11.2153525390625,-38.81999969482422,1.1399999856948853,-25.68000030517578
1759864134717351200,11.22535107421875,-38.39999771118164,1.3799999952316284,-25.739999771118164
1759864134727350000,11.23535009765625,-38.099998474121094,1.0199999809265137,-25.68000030517578
1759864134737348900,11.245348876953125,-37.97999954223633,0.9599999785423279,-25.68000030517578
1759864134747347500,11.255347412109375,-38.279998779296875,0.7799999713897705,-26.03999900817871
1759864134757346300,11.26534619140625,-38.279998779296875,0.8399999737739563,-25.920000076293945
1759864134767345000,11.275344970703125,-38.81999969482422,1.0799999237060547,-26.579999923706055
1759864134777343700,11.28534375,-39,0.9599999785423279,-26.579999923706055
1759864134787342600,11.295342529296875,-38.57999801635742,0.7799999713897705,-26.399999618530273
1759864134797341200,11.305341064453126,-39,0.6599999666213989,-27.059999465942383
1759864134807339800,11.31533984375,-38.52000045776367,1.1999999284744263,-26.639999389648438
1759864134817338600,11.325338623046875,-38.21999740600586,1.1399999856948853,-26.939998626708984
1759864134827337500,11.33533740234375,-37.97999954223633,1.5,-27.18000030517578
1759864134837336000,11.345336181640626,-37.55999755859375,1.1399999856948853,-26.939998626708984
1759864134847334700,11.355334716796875,-37.91999816894531,0.29999998211860657,-27.299999237060547
1759864134857333500,11.36533349609375,-37.86000061035156,0.23999999463558197,-27.53999900817871
1759864134867332000,11.37533203125,-37.86000061035156,-0.47999998927116394,-27.65999984741211
1759864134877331000,11.3853310546875,-38.279998779296875,-0.7199999690055847,-27.899999618530273
1759864134887329800,11.395329833984375,-37.86000061035156,-0.5999999642372131,-27.959999084472656
1759864134897328400,11.405328369140625,-38.15999984741211,-0.5399999618530273,-27.719999313354492
1759864134907327200,11.4153271484375,-38.7599983215332,-0.41999998688697815,-27.899999618530273
1759864134917326000,11.425326171875,-38.52000045776367,-0.11999999731779099,-27.53999900817871
1759864134927324700,11.43532470703125,-38.87999725341797,0.11999999731779099,-27.35999870300293
1759864134937323500,11.445323486328125,-38.939998626708984,0.6599999666213989,-27.599998474121094
1759864134947322400,11.455322265625,-38.39999771118164,0.7799999713897705,-27.299999237060547
1759864134957321000,11.465321044921875,-38.939998626708984,1.0199999809265137,-28.01999855041504
1759864134967319800,11.47531982421875,-38.57999801635742,0.7799999713897705,-27.779998779296875
1759864134977318400,11.485318359375,-38.57999801635742,0.11999999731779099,-27.65999984741211
1759864134987317200,11.495317138671876,-38.81999969482422,-0.35999998450279236,-27.53999900817871
1759864134997316000,11.505316162109375,-38.7599983215332,-0.47999998927116394,-26.81999969482422
1759864135007314700,11.515314697265625,-38.87999725341797,-0.11999999731779099,-26.760000228881836
1759864135017313500,11.5253134765625,-38.87999725341797,-0.23999999463558197,-26.51999855041504
1759864135037311000,11.54531103515625,-38.279998779296875,-0.23999999463558197,-26.81999969482422
1759864135047309800,11.555309814453125,-38.52000045776367,-0.47999998927116394,-27.059999465942383
1759864135057308400,11.565308349609374,-38.21999740600586,-0.6599999666213989,-27.239999771118164
1759864135067307300,11.575307373046876,-38.099998474121094,-1.1999999284744263,-27.059999465942383
1759864135077306000,11.58530615234375,-38.279998779296875,-1.3799999952316284,-27.059999465942383
1759864135087304700,11.5953046875,-38.34000015258789,-1.2599999904632568,-26.81999969482422
1759864135097303600,11.605303466796874,-38.459999084472656,-1.1999999284744263,-26.639999389648438
1759864135107302400,11.615302490234376,-38.7599983215332,-0.7199999690055847,-26.579999923706055
1759864135117301000,11.625301025390625,-38.459999084472656,-1.0199999809265137,-26.760000228881836
1759864135127299800,11.6352998046875,-38.21999740600586,-1.3199999332427979,-26.81999969482422
1759864135137298700,11.645298583984374,-38.39999771118164,-1.3799999952316284,-26.459999084472656
1759864135147297500,11.655297607421875,-38.63999938964844,-1.5,-26.399999618530273
1759864135157296600,11.665296630859375,-38.87999725341797,-1.9199999570846558,-26.219999313354492
1759864135167295500,11.67529541015625,-38.939998626708984,-1.7999999523162842,-26.219999313354492
1759864135177294600,11.685294677734374,-38.939998626708984,-1.6799999475479126,-26.51999855041504
1759864135187293400,11.69529345703125,-38.87999725341797,-1.8600000143051147,-26.579999923706055
1759864135197291800,11.705291748046875,-38.939998626708984,-1.2599999904632568,-26.34000015258789
1759864135207291000,11.715290771484375,-39,-1.2599999904632568,-26.03999900817871
1759864135217289200,11.725289306640626,-39,-1.3199999332427979,-25.799999237060547
1759864135227287600,11.73528759765625,-38.939998626708984,-1.1999999284744263,-25.619998931884766
1759864135237286700,11.74528662109375,-38.87999725341797,-1.3199999332427979,-25.979999542236328
1759864135247285800,11.75528564453125,-39,-1.7400000095367432,-26.399999618530273
1759864135257284000,11.7652841796875,-39.05999755859375,-1.4399999380111694,-26.51999855041504
1759864135267282400,11.775282470703125,-38.52000045776367,-1.6799999475479126,-26.15999984741211
1759864135277281500,11.785281494140625,-38.34000015258789,-1.7400000095367432,-25.85999870300293
1759864135287280600,11.79528076171875,-38.459999084472656,-1.6799999475479126,-25.19999885559082
1759864135297279700,11.80527978515625,-38.459999084472656,-2.2200000286102295,-25.3799991607666
1759864135307278600,11.815278564453125,-38.939998626708984,-2.3399999141693115,-25.619998931884766
1759864135317277700,11.825277587890625,-39.05999755859375,-2.3999998569488525,-25.31999969482422
1759864135327276800,11.83527685546875,-39.119998931884766,-2.879999876022339,-25.799999237060547
1759864135337275600,11.845275634765626,-39.119998931884766,-2.5799999237060547,-25.739999771118164
1759864135347274800,11.855274658203125,-39.18000030517578,-2.3399999141693115,-25.85999870300293
1759864135357273900,11.86527392578125,-39.29999923706055,-2.2799999713897705,-26.459999084472656
1759864135367273000,11.87527294921875,-38.81999969482422,-2.4600000381469727,-27
1759864135377272000,11.88527197265625,-38.7599983215332,-2.879999876022339,-26.81999969482422
1759864135387271000,11.89527099609375,-38.57999801635742,-3.059999942779541,-27.119998931884766
1759864135397270000,11.90527001953125,-38.57999801635742,-3.059999942779541,-27.119998931884766
1759864135407268400,11.915268310546875,-38.87999725341797,-2.879999876022339,-26.639999389648438
1759864135417267500,11.925267333984374,-38.459999084472656,-2.759999990463257,-26.8799991607666
1759864135427266600,11.9352666015625,-38.34000015258789,-2.4600000381469727,-26.579999923706055
1759864135437265400,11.945265380859375,-37.68000030517578,-2.6399998664855957,-26.03999900817871
1759864135447264300,11.95526416015625,-37.68000030517578,-2.3399999141693115,-26.219999313354492
1759864135457263000,11.96526318359375,-38.21999740600586,-2.4600000381469727,-26.219999313354492
1759864135467262000,11.975261962890626,-38.21999740600586,-2.819999933242798,-26.399999618530273
1759864135477260800,11.9852607421875,-38.52000045776367,-2.5199999809265137,-26.760000228881836
1759864135487259600,11.995259765625,-38.099998474121094,-1.9199999570846558,-26.279998779296875
1759864135497259000,12.005259033203124,-38.459999084472656,-1.8600000143051147,-26.279998779296875
1759864135507257900,12.0152578125,-39,-1.8600000143051147,-26.15999984741211
1759864135517257200,12.02525732421875,-38.939998626708984,-2.2200000286102295,-25.5
1759864135527256600,12.035256591796875,-38.81999969482422,-2.93999981880188,-25.559999465942383
1759864135537255400,12.04525537109375,-38.39999771118164,-3,-25.5
1759864135547254000,12.05525390625,-38.099998474121094,-3,-25.31999969482422
1759864135557253400,12.06525341796875,-37.97999954223633,-2.879999876022339,-25.439998626708984
1759864135567253000,12.0752529296875,-38.15999984741211,-2.6399998664855957,-25.260000228881836
1759864135577251600,12.08525146484375,-38.099998474121094,-2.819999933242798,-25.260000228881836
1759864135587250400,12.09525048828125,-37.97999954223633,-3.119999885559082,-25.559999465942383
1759864135597249000,12.1052490234375,-37.97999954223633,-2.93999981880188,-25.799999237060547
1759864135607248000,12.115247802734375,-37.79999923706055,-2.819999933242798,-25.920000076293945
1759864135617246500,12.12524658203125,-37.380001068115234,-2.819999933242798,-26.279998779296875
1759864135627245300,12.135245361328124,-37.68000030517578,-2.1599998474121094,-26.03999900817871
1759864135637244200,12.145244140625,-37.68000030517578,-1.9199999570846558,-25.799999237060547
1759864135647242800,12.15524267578125,-37.91999816894531,-1.9199999570846558,-25.85999870300293
1759864135657241600,12.16524169921875,-37.86000061035156,-2.0399999618530273,-25.559999465942383
1759864135667240400,12.175240478515626,-37.55999755859375,-2.4600000381469727,-25.3799991607666
1759864135677239000,12.185239013671875,-37.619998931884766,-3.059999942779541,-25.439998626708984
1759864135687238000,12.19523779296875,-37.55999755859375,-2.879999876022339,-25.619998931884766
1759864135697236700,12.20523681640625,-37.55999755859375,-2.3999998569488525,-25.559999465942383
1759864135707236000,12.215236083984376,-37.68000030517578,-1.8600000143051147,-25.619998931884766
1759864135717235000,12.22523486328125,-37.439998626708984,-1.0799999237060547,-25.3799991607666
1759864135727233500,12.235233642578125,-37.73999786376953,-1.0799999237060547,-25.19999885559082
1759864135737232400,12.245232421875,-37.97999954223633,-1.3199999332427979,-25.260000228881836
1759864135747231000,12.25523095703125,-37.97999954223633,-1.3199999332427979,-25.559999465942383
1759864135777227300,12.285227294921874,-38.21999740600586,-1.5,-26.219999313354492
1759864135787226000,12.29522607421875,-38.099998474121094,-1.7999999523162842,-26.399999618530273
1759864135797225000,12.305224853515625,-38.099998474121094,-1.8600000143051147,-26.03999900817871
1759864135807223600,12.3152236328125,-38.040000915527344,-1.7999999523162842,-26.099998474121094
1759864135817222400,12.325222412109374,-37.86000061035156,-1.9799998998641968,-26.279998779296875
1759864135827221200,12.33522119140625,-37.619998931884766,-2.2200000286102295,-25.739999771118164
1759864135837219800,12.3452197265625,-37.73999786376953,-2.5799999237060547,-25.68000030517578
1759864135847218700,12.35521875,-38.099998474121094,-2.1599998474121094,-25.5
1759864135857217300,12.36521728515625,-38.21999740600586,-2.2799999713897705,-25.260000228881836
1759864135867216100,12.375216064453125,-38.34000015258789,-1.9199999570846558,-25.260000228881836
1759864135877214700,12.385214599609375,-37.86000061035156,-1.8600000143051147,-25.559999465942383
1759864135887213600,12.395213623046875,-37.55999755859375,-2.1599998474121094,-25.439998626708984
1759864135897212400,12.40521240234375,-37.380001068115234,-1.4399999380111694,-25.260000228881836
1759864135907211000,12.4152109375,-37.68000030517578,-1.2599999904632568,-25.559999465942383
1759864135917209900,12.4252099609375,-37.73999786376953,-0.47999998927116394,-25.3799991607666
1759864135927208400,12.43520849609375,-37.91999816894531,-0.05999999865889549,-25.31999969482422
1759864135937207300,12.445207275390626,-38.34000015258789,-0.5399999618530273,-25.799999237060547
1759864135947206000,12.455205810546875,-38.279998779296875,-0.11999999731779099,-25.5
1759864135957204700,12.465204833984375,-38.39999771118164,-0.41999998688697815,-25.85999870300293
1759864135967203300,12.475203369140624,-37.86000061035156,-0.47999998927116394,-26.459999084472656
1759864135977202000,12.485201904296876,-37.68000030517578,-0.35999998450279236,-26.399999618530273
1759864135987200800,12.49520068359375,-37.68000030517578,-0.5399999618530273,-26.51999855041504
1759864135997199600,12.50519970703125,-37.73999786376953,-0.5999999642372131,-26.03999900817871
1759864136007198200,12.5151982421875,-37.73999786376953,-0.17999999225139618,-25.68000030517578
1759864136017197000,12.525197021484376,-37.55999755859375,-0.11999999731779099,-25.619998931884766
1759864136027196000,12.53519580078125,-37.68000030517578,-0.29999998211860657,-25.5
1759864136037194500,12.545194580078125,-37.86000061035156,-0.35999998450279236,-25.619998931884766
1759864136047193300,12.555193359375,-38.099998474121094,-0.23999999463558197,-25.31999969482422
1759864136057192000,12.56519189453125,-38.57999801635742,0.23999999463558197,-25.139999389648438
1759864136067190800,12.575190673828125,-38.459999084472656,0.6599999666213989,-25.139999389648438
1759864136077189600,12.585189697265625,-37.91999816894531,0.7799999713897705,-25.19999885559082
1759864136087188200,12.595188232421876,-38.099998474121094,0.17999999225139618,-25.01999855041504
1759864136097187000,12.60518701171875,-37.31999969482422,-0.23999999463558197,-24.959999084472656
1759864136107186000,12.61518603515625,-37.439998626708984,-0.41999998688697815,-24.719999313354492
1759864136117184500,12.6251845703125,-37.619998931884766,-0.41999998688697815,-24.479999542236328
1759864136127183400,12.635183349609376,-37.73999786376953,-0.41999998688697815,-24.53999900817871
1759864136137182000,12.645181884765625,-38.39999771118164,-0.47999998927116394,-24.420000076293945
1759864136147180800,12.655180908203125,-38.040000915527344,-0.11999999731779099,-24.719999313354492
1759864136157179600,12.6651796875,-38.39999771118164,-0.29999998211860657,-24.719999313354492
1759864136167178200,12.67517822265625,-38.34000015258789,-0.29999998211860657,-24.959999084472656
1759864136177177000,12.685177001953125,-38.39999771118164,-0.23999999463558197,-24.899999618530273
1759864136187176000,12.695176025390625,-38.52000045776367,-1.0799999237060547,-24.959999084472656
1759864136197173800,12.705173828125,-38.21999740600586,-1.2599999904632568,-24.899999618530273
1759864136207171800,12.715171875,-38.52000045776367,-1.5,-24.420000076293945
1759864136217170000,12.725169921875,-38.39999771118164,-1.3799999952316284,-24.600000381469727
1759864136227168000,12.73516796875,-38.21999740600586,-1.1999999284744263,-24.059999465942383
1759864136237166000,12.745166015625,-38.15999984741211,-0.8399999737739563,-24.119998931884766
1759864136247166000,12.755166015625,-38.099998474121094,-0.41999998688697815,-24.299999237060547
1759864136257164800,12.765164794921875,-38.15999984741211,-0.8399999737739563,-24
1759864136267163000,12.775162841796876,-38.39999771118164,-0.29999998211860657,-24.18000030517578
1759864136277162000,12.785161865234375,-38.81999969482422,-0.11999999731779099,-23.939998626708984
1759864136287160800,12.795160888671875,-38.81999969482422,-0.29999998211860657,-23.69999885559082
1759864136297159700,12.80515966796875,-39.29999923706055,-0.41999998688697815,-23.81999969482422
1759864136307158500,12.815158447265626,-39.36000061035156,-1.0199999809265137,-23.639999389648438
1759864136317157400,12.825157470703125,-39.18000030517578,-1.3199999332427979,-23.760000228881836
1759864136327156200,12.83515625,-39,-1.6200000047683716,-23.69999885559082
1759864136337155000,12.845155029296874,-38.63999938964844,-1.7999999523162842,-23.459999084472656
1759864136347154000,12.85515380859375,-38.7599983215332,-1.9199999570846558,-23.459999084472656
1759864136357152800,12.86515283203125,-38.52000045776367,-2.1599998474121094,-23.579999923706055
1759864136367151600,12.875151611328125,-38.7599983215332,-2.2200000286102295,-23.34000015258789
1759864136377150500,12.885150390625,-38.70000076293945,-2.0999999046325684,-23.03999900817871
1759864136387149300,12.8951494140625,-38.87999725341797,-2.4600000381469727,-23.03999900817871
1759864136397148200,12.905148193359375,-38.87999725341797,-2.4600000381469727,-22.559999465942383
1759864136407147000,12.91514697265625,-38.63999938964844,-2.4600000381469727,-22.619998931884766
1759864136417145900,12.925145751953124,-38.70000076293945,-2.5799999237060547,-22.979999542236328
1759864136427144700,12.935144775390626,-38.57999801635742,-2.2799999713897705,-22.68000030517578
1759864136437143600,12.9451435546875,-39.05999755859375,-2.6399998664855957,-22.979999542236328
1759864136447142400,12.955142333984375,-39.119998931884766,-2.819999933242798,-23.279998779296875
1759864136457141200,12.965141357421874,-39.18000030517578,-3.119999885559082,-22.979999542236328
1759864136467140000,12.97514013671875,-39.119998931884766,-3.119999885559082,-23.100000381469727
1759864136477139000,12.985138916015625,-38.87999725341797,-3.059999942779541,-23.51999855041504
1759864136487137800,12.9951376953125,-39.119998931884766,-3.119999885559082,-23.579999923706055
1759864136497137400,13.005137451171874,-39,-2.819999933242798,-23.81999969482422
1759864136507137000,13.015136962890624,-39.18000030517578,-3.179999828338623,-23.639999389648438
1759864136517136600,13.02513671875,-38.87999725341797,-2.93999981880188,-23.34000015258789
1759864136527136300,13.03513623046875,-38.87999725341797,-3,-22.920000076293945
1759864136537135600,13.045135498046875,-38.939998626708984,-2.819999933242798,-22.68000030517578
1759864136547133400,13.055133544921874,-38.15999984741211,-2.700000047683716,-22.739999771118164
1759864136557132000,13.065132080078126,-38.52000045776367,-2.4600000381469727,-22.079999923706055
1759864136567131600,13.075131591796875,-38.459999084472656,-1.8600000143051147,-22.3799991607666
1759864136577130200,13.085130126953125,-38.279998779296875,-1.5,-22.3799991607666
1759864136587128800,13.09512890625,-38.81999969482422,-1.1999999284744263,-22.85999870300293
1759864136597127700,13.105127685546876,-38.70000076293945,-0.9599999785423279,-23.15999984741211
1759864136607126500,13.11512646484375,-38.81999969482422,-0.41999998688697815,-22.979999542236328
1759864136617125000,13.125125,-39.119998931884766,-0.8399999737739563,-23.15999984741211
1759864136627124000,13.1351240234375,-38.81999969482422,-0.29999998211860657,-22.619998931884766
1759864136637122600,13.14512255859375,-38.34000015258789,-0.11999999731779099,-22.5
1759864136647121400,13.155121337890625,-38.279998779296875,-0.6599999666213989,-22.3799991607666
1759864136657120300,13.165120361328125,-38.279998779296875,-0.23999999463558197,-22.5
1759864136667118800,13.175118896484374,-38.39999771118164,-0.5399999618530273,-22.5
1759864136677117700,13.18511767578125,-38.81999969482422,-0.8999999761581421,-22.799999237060547
1759864136687116500,13.195116455078125,-38.70000076293945,-1.0799999237060547,-22.439998626708984
1759864136697115100,13.205115234375,-38.63999938964844,-1.1399999856948853,-22.079999923706055
1759864136707114000,13.215114013671876,-38.7599983215332,-1.1999999284744263,-22.079999923706055
1759864136717112600,13.225112548828125,-39.05999755859375,-1.2599999904632568,-22.020000457763672
1759864136727111400,13.235111328125,-38.939998626708984,-1.0199999809265137,-22.85999870300293
1759864136737110300,13.2451103515625,-38.81999969482422,-1.3799999952316284,-22.920000076293945
1759864136747108900,13.25510888671875,-39.05999755859375,-1.3799999952316284,-22.920000076293945
1759864136757107700,13.265107666015625,-39.29999923706055,-1.9799998998641968,-22.68000030517578
1759864136767106600,13.2751064453125,-39,-2.3399999141693115,-21.84000015258789
1759864136777105200,13.285105224609374,-39.18000030517578,-2.2799999713897705,-21.959999084472656
1759864136787104000,13.29510400390625,-38.87999725341797,-2.5799999237060547,-21.959999084472656
1759864136797102800,13.305102783203125,-38.52000045776367,-2.2200000286102295,-21.899999618530273
1759864136807101400,13.315101318359375,-38.70000076293945,-2.2799999713897705,-21.600000381469727
1759864136817100300,13.325100341796874,-38.63999938964844,-2.700000047683716,-21.479999542236328
1759864136827099000,13.335098876953126,-38.39999771118164,-3.179999828338623,-21.53999900817871
1759864136837097200,13.34509716796875,-38.57999801635742,-3.179999828338623,-21.420000076293945
1759864136847096000,13.355095947265625,-38.7599983215332,-3.240000009536743,-22.020000457763672
1759864136857094700,13.3650947265625,-38.81999969482422,-3.119999885559082,-21.959999084472656
1759864136867093500,13.375093505859375,-38.939998626708984,-2.6399998664855957,-21.84000015258789
1759864136877092000,13.385092041015625,-38.52000045776367,-2.5799999237060547,-22.19999885559082
1759864136887091000,13.395091064453124,-38.15999984741211,-2.3999998569488525,-22.139999389648438
1759864136897089800,13.40508984375,-38.21999740600586,-2.2799999713897705,-22.19999885559082
1759864136907088400,13.41508837890625,-38.279998779296875,-2.3399999141693115,-22.19999885559082
