time,seconds_elapsed,z,y,x
1759864122633286700,-0.85871337890625,8.058882713317871,5.537788391113281,-0.7254431247711182
1759864122673631000,-0.818369140625,8.044517517089844,5.461174011230469,-0.6991068720817566
1759864122703934700,-0.788065185546875,8.123526573181152,5.592854976654053,-0.6607996821403503
1759864122734238700,-0.75776123046875,7.943961143493652,5.386953830718994,-0.5985504388809204
1759864122744340000,-0.747659912109375,7.989450931549072,5.398924827575684,-0.586579442024231
1759864122754411000,-0.737589111328125,8.015787124633789,5.432443618774414,-0.5985504388809204
1759864122764512300,-0.72748779296875,7.99184513092041,5.56173038482666,-0.5937620401382446
1759864122794724600,-0.697275390625,7.915230751037598,5.51624059677124,-0.5937620401382446
1759864122804825900,-0.687174072265625,7.90086555480957,5.355829238891602,-0.6368576288223267
1759864122855118800,-0.636881103515625,7.797914981842041,5.56173038482666,-0.5722141861915588
1759864122905473000,-0.58652685546875,7.908048152923584,5.592854976654053,-0.6248866319656372
1759864122915574300,-0.57642578125,7.91283655166626,5.559336185455322,-0.6368576288223267
1759864122986039300,-0.505960693359375,7.94635534286499,5.4228668212890625,-0.4405331015586853
1759864122996140500,-0.495859375,8.087613105773926,5.298368453979492,-1.1300631761550903
1759864123066636300,-0.42536376953125,8.128314971923828,5.779603004455566,-0.7038952708244324
1759864123076676600,-0.415323486328125,8.152256965637207,6.203376770019531,-0.8619126081466675
1759864123116929300,-0.37507080078125,6.962338447570801,7.872135162353516,-1.2234370708465576
1759864123147141600,-0.3448583984375,5.4875102043151855,8.288725852966309,-1.192312479019165
1759864123197465000,-0.294534912109375,5.714959621429443,7.390900611877441,-0.9217676520347595
1759864123237748200,-0.254251708984375,5.671864032745361,6.162675380706787,-0.7829039692878723
1759864123247849700,-0.244150390625,5.5545477867126465,5.604825973510742,-0.8523358106613159
1759864123257920500,-0.23407958984375,5.420472621917725,4.596867084503174,-0.8020575642585754
1759864123278062000,-0.21393798828125,5.080495834350586,1.8411411046981812,-1.0007762908935547
1759864123298203600,-0.19379638671875,5.396530628204346,-1.8483237028121948,-0.3758896589279175
1759864123338578400,-0.153421630859375,2.2242133617401123,-10.967838287353516,2.786850690841675
1759864123388932400,-0.103067626953125,0.2082955539226532,-12.801796913146973,7.876923561096191
1759864123409074000,-0.082926025390625,2.231395959854126,-11.918335914611816,9.014169692993164
1759864123419114200,-0.0728857421875,2.964021682739258,-11.36048698425293,8.640673637390137
1759864123439286300,-0.052713623046875,4.1180267333984375,-12.416330337524414,6.710947513580322
1759864123449387800,-0.0426123046875,4.955997467041016,-11.075576782226562,5.6910176277160645
1759864123459458600,-0.03254150390625,4.003105163574219,-10.730812072753906,5.106832027435303
1759864123469559800,-0.022440185546875,1.6831238269805908,-10.520122528076172,5.813121795654297
1759864123499833300,0.007833251953125,-0.13407529890537262,-11.628637313842773,6.4380083084106445
1759864123509934600,0.0179345703125,0.17477671802043915,-10.936713218688965,7.01979923248291
1759864123530106600,0.038106689453125,0.28969839215278625,-9.533711433410645,6.7061591148376465
1759864125153476600,1.6614765625,-3.4572272300720215,-7.2568254470825195,5.688623428344727
1759864125163478000,1.67147802734375,-3.4572272300720215,-7.2568254470825195,5.688623428344727
1759864125173348600,1.6813486328125,-2.894589900970459,-7.074865818023682,5.544970989227295
1759864125183219500,1.691219482421875,-3.471592426300049,-6.744466304779053,5.035006046295166
1759864125203361000,1.711361083984375,-3.469198226928711,-6.696582317352295,4.252102375030518
1759864125213431800,1.721431884765625,-3.531447410583496,-7.079654216766357,5.75326681137085
1759864125233573600,1.74157373046875,-3.73016619682312,-6.121973514556885,5.609614372253418
1759864125263786000,1.771785888671875,-2.6408045291900635,-7.247248649597168,5.542576789855957
1759864125283927600,1.791927490234375,-2.2888567447662354,-7.845798969268799,5.822698593139648
1759864125294028800,1.80202880859375,-3.203441858291626,-6.933608055114746,6.004657745361328
1759864125304130000,1.812130126953125,-4.299986362457275,-6.689399719238281,6.485892295837402
1759864125314200800,1.822200927734375,-4.4077253341674805,-6.801927089691162,6.414066314697266
1759864125354453800,1.862453857421875,-5.324704647064209,-7.254431247711182,6.370970726013184
1759864125374525700,1.882525634765625,-3.270479440689087,-7.539340972900391,5.736507415771484
1759864125394698000,1.902697998046875,-3.3662476539611816,-8.631096839904785,6.691793918609619
1759864125424910300,1.932910400390625,-4.929661273956299,-7.180211067199707,5.03021764755249
1759864125434981000,1.942981201171875,-4.307168960571289,-7.091625213623047,4.862623691558838
1759864125445021400,1.953021484375,-5.051765441894531,-7.9176249504089355,5.920860767364502
1759864125455092200,1.96309228515625,-5.389348030090332,-7.3669586181640625,6.119579315185547
1759864125465163000,1.9731630859375,-5.286397457122803,-8.039729118347168,4.953603267669678
1759864125475264300,1.98326416015625,-4.458003520965576,-9.569623947143555,8.17380428314209
1759864125525618200,2.0336181640625,-3.7900211811065674,-7.9846625328063965,3.318363666534424
1759864125545790500,2.05379052734375,-3.0765492916107178,-8.315062522888184,4.944026470184326
1759864125555861200,2.063861328125,-3.354276657104492,-8.609549522399902,6.184223175048828
1759864125565932000,2.07393212890625,-2.0039467811584473,-8.219294548034668,6.4834980964660645
1759864125576033300,2.084033203125,-3.7828385829925537,-8.130708694458008,7.757213592529297
1759864125596205600,2.10420556640625,-4.323928356170654,-8.233659744262695,8.559270858764648
1759864125606276400,2.1142763671875,-4.6950297355651855,-7.733271598815918,7.285555839538574
1759864125616347100,2.12434716796875,-4.350264549255371,-7.496245384216309,5.477933406829834
1759864125636458200,2.144458251953125,-2.9017724990844727,-8.183381080627441,2.868253707885742
1759864125646529000,2.154529052734375,-2.896984100341797,-8.580819129943848,2.875436305999756
1759864125656599800,2.164599853515625,-3.4356794357299805,-8.777143478393555,3.797203779220581
1759864125666701000,2.174701171875,-3.624821424484253,-8.501810073852539,4.587290287017822
1759864125676771800,2.184771728515625,-3.624821424484253,-8.501810073852539,4.587290287017822
1759864125686873000,2.194873046875,-3.043030261993408,-7.9846625328063965,5.094861030578613
1759864125727156500,2.235156494140625,-3.665522813796997,-8.56884765625,4.9152960777282715
1759864125747328500,2.25532861328125,-3.9911341667175293,-8.219294548034668,4.644751071929932
1759864125757399300,2.2653994140625,-3.3662476539611816,-8.090007781982422,4.484339714050293
1759864125767470000,2.275469970703125,-2.851494312286377,-8.101978302001953,4.508281707763672
1759864125777540900,2.285540771484375,-2.8395233154296875,-8.142680168151855,4.584896087646484
1759864125837965800,2.3459658203125,-3.8115692138671875,-7.050923824310303,4.716577529907227
1759864125858137900,2.366137939453125,-3.825934410095215,-7.532158374786377,4.410119533538818
1759864125868208600,2.376208740234375,-3.0119056701660156,-7.280767440795898,4.802768707275391
1759864125878249000,2.3862490234375,-4.802768707275391,-7.0341644287109375,5.166687488555908
1759864125918562600,2.4265625,-4.879383087158203,-6.598419666290283,6.981492042541504
1759864125928664000,2.4366640625,-5.473145008087158,-6.50025749206543,5.947196960449219
1759864125938765300,2.446765380859375,-5.166687488555908,-7.876923561096191,5.793968200683594
1759864125948866600,2.456866455078125,-4.800374507904053,-8.370129585266113,4.994304656982422
1759864125958937300,2.466937255859375,-4.048594951629639,-7.608773231506348,3.5482068061828613
1759864125969038600,2.47703857421875,-3.758896589279175,-6.6630635261535645,2.145204782485962
1759864125979079000,2.487078857421875,-6.339846134185791,-8.073247909545898,3.6966474056243896
1759864125989180400,2.497180419921875,-4.60165548324585,-7.723694801330566,2.786850690841675
1759864126019392800,2.527392822265625,-5.1810526847839355,-6.598419666290283,2.2625205516815186
1759864126029463600,2.537463623046875,-4.8051629066467285,-8.058882713317871,2.5450363159179688
1759864126039534300,2.547534423828125,-2.231395959854126,-10.046070098876953,-7.501033782958984
1759864126049635600,2.557635498046875,-5.884947776794434,-9.588777542114258,-4.039018154144287
1759864126059706400,2.567706298828125,-3.8379054069519043,-8.578424453735352,1.139639973640442
1759864126069746700,2.57774658203125,-5.006275653839111,-6.5050458908081055,5.604825973510742
1759864126079848000,2.587847900390625,-8.616731643676758,-5.9304375648498535,9.258378028869629
1759864126089949400,2.597949462890625,-7.905653953552246,-5.3797712326049805,8.485051155090332
1759864126110121500,2.61812158203125,-5.8657941818237305,-7.398083209991455,5.07570743560791
1759864126130202000,2.6382021484375,-5.48272180557251,-9.117119789123535,4.491522312164307
1759864126140303400,2.648303466796875,-5.219359874725342,-9.160215377807617,5.17626428604126
1759864126150404600,2.658404541015625,-5.193023681640625,-9.17697525024414,5.87776517868042
1759864126160414500,2.66841455078125,-5.351040840148926,-8.935160636901855,6.052541732788086
1759864126170485200,2.6784853515625,-5.616796970367432,-8.949525833129883,5.736507415771484
1759864126180586500,2.68858642578125,-5.616796970367432,-8.949525833129883,5.736507415771484
1759864126190657300,2.6986572265625,-5.736507415771484,-8.851364135742188,5.355829238891602
1759864126200697600,2.708697509765625,-5.626373767852783,-8.722076416015625,4.867412090301514
1759864126230910000,2.738909912109375,-5.729324817657471,-7.8314337730407715,4.948814868927002
1759864126240950300,2.7489501953125,-4.537012100219727,-7.390900611877441,4.920084476470947
1759864126251051500,2.759051513671875,-4.352658748626709,-7.304709434509277,4.81473970413208
1759864126261122600,2.76912255859375,-5.329493045806885,-7.613561630249023,4.788403511047363
1759864126271193300,2.779193359375,-5.449203014373779,-7.443572998046875,4.819528102874756
1759864126281264000,2.78926416015625,-5.499481201171875,-6.54574728012085,4.742913722991943
1759864126291335000,2.7993349609375,-6.157886981964111,-5.386953830718994,4.716577529907227
1759864126301375200,2.809375244140625,-6.117185115814209,-4.821922302246094,4.888959884643555
1759864126331526400,2.8395263671875,-5.403713226318359,-5.760449409484863,5.935225963592529
1759864126341597200,2.84959716796875,-5.16429328918457,-6.402095317840576,6.004657745361328
1759864126351637500,2.859637451171875,-4.508281707763672,-6.485892295837402,5.87776517868042
1759864126361708300,2.869708251953125,-4.963180065155029,-5.944802761077881,5.643133640289307
1759864126391951400,2.899951416015625,-6.282385349273682,-4.704606533050537,5.784391403198242
1759864126422163700,2.930163818359375,-5.791574001312256,-5.003881454467773,6.071695327758789
1759864126452376000,2.9603759765625,-6.224924564361572,-4.580107688903809,5.463568210601807
1759864126462446800,2.97044677734375,-5.858611583709717,-4.730942726135254,5.760449409484863
1759864126472517600,2.980517578125,-5.102043628692627,-5.145139217376709,6.157886981964111
1759864126482588400,2.99058837890625,-5.236119270324707,-5.39174222946167,6.5050458908081055
1759864126492659200,3.0006591796875,-5.0876784324646,-6.208165168762207,6.588842868804932
1759864126522810600,3.030810546875,-5.389348030090332,-5.142745018005371,6.694188117980957
1759864126532911900,3.040911865234375,-5.736507415771484,-5.4444146156311035,6.854599475860596
1759864126543013400,3.051013427734375,-5.264849662780762,-5.568912982940674,7.096413612365723
1759864126553053700,3.0610537109375,-4.754884719848633,-5.418078422546387,7.1490864753723145
1759864126563124500,3.07112451171875,-4.699818134307861,-5.169081687927246,7.113173484802246
1759864126573195300,3.0811953125,-4.702212333679199,-4.898536682128906,6.964732646942139
1759864126583296500,3.091296630859375,-4.6040496826171875,-4.6255974769592285,6.7923502922058105
1759864126593367300,3.1013671875,-4.800374507904053,-4.649539470672607,6.624756336212158
1759864126603438000,3.11143798828125,-4.702212333679199,-4.975151062011719,6.560112476348877
1759864126643721200,3.15172119140625,-4.76924991607666,-4.513070106506348,6.045359134674072
1759864126663863000,3.171863037109375,-5.104437828063965,-5.408501625061035,5.767632007598877
1759864126673933800,3.181933837890625,-5.104437828063965,-5.408501625061035,5.767632007598877
1759864126684035000,3.19203515625,-5.054159641265869,-6.279991149902344,5.858611583709717
1759864126694105900,3.20210595703125,-4.8051629066467285,-6.521805286407471,5.688623428344727
1759864126704207000,3.21220703125,-4.898536682128906,-6.6127848625183105,5.542576789855957
1759864126724348700,3.2323486328125,-5.25527286529541,-7.01979923248291,6.234501361846924
1759864126744521000,3.25252099609375,-5.154716491699219,-6.62236213684082,6.835445880889893
1759864126754591700,3.262591796875,-4.912901878356934,-6.028599739074707,6.761225700378418
1759864126764693000,3.27269287109375,-4.754884719848633,-5.315127849578857,6.540958881378174
1759864126774763800,3.282763671875,-4.944026470184326,-5.013458251953125,6.430825710296631
1759864126784865000,3.292864990234375,-5.322310447692871,-4.771644115447998,6.385335922241211
1759864126794966500,3.302966552734375,-5.655104637145996,-4.759673118591309,6.265625953674316
1759864126805037300,3.313037353515625,-5.817910194396973,-4.6734819412231445,6.057330131530762
1759864126815108000,3.323108154296875,-5.035006046295166,-5.015852451324463,6.042964935302734
1759864126835280100,3.343280029296875,-4.742913722991943,-4.831499099731445,5.882553577423096
1759864126845381400,3.35338134765625,-4.666299343109131,-4.6040496826171875,5.961562156677246
1759864126855452200,3.3634521484375,-4.8937482833862305,-4.702212333679199,6.208165168762207
1759864126865553700,3.3735537109375,-5.22175407409668,-5.0254292488098145,6.44279670715332
1759864126875624400,3.38362451171875,-5.559336185455322,-5.219359874725342,6.651092529296875
1759864126885695200,3.3936953125,-5.568912982940674,-5.317522048950195,6.794744491577148
1759864126895796500,3.40379638671875,-5.2672438621521,-5.324704647064209,6.658275127410889
1759864126905867300,3.4138671875,-4.824316501617432,-5.082890033721924,6.512228488922119
1759864126915968500,3.423968505859375,-4.58968448638916,-4.776432514190674,6.45476770401001
1759864126936079600,3.44407958984375,-4.632780075073242,-4.627991676330566,6.756437301635742
1759864126946181000,3.45418115234375,-4.702212333679199,-4.8937482833862305,6.912060260772705
1759864126956221400,3.464221435546875,-4.8267107009887695,-5.039794445037842,6.967126846313477
1759864126966322700,3.47432275390625,-5.066130638122559,-5.073313236236572,7.038952827453613
1759864126976393500,3.4843935546875,-5.348646640777588,-5.406107425689697,7.158663272857666
1759864126986494700,3.49449462890625,-5.324704647064209,-5.57370138168335,7.228095054626465
1759864126996535000,3.50453515625,-5.171475887298584,-5.439626216888428,7.242460250854492
1759864127006636300,3.51463623046875,-4.972756862640381,-5.219359874725342,7.084442615509033
1759864127016707000,3.52470703125,-4.6734819412231445,-5.322310447692871,7.117961883544922
1759864127036818200,3.544818115234375,-5.023035049438477,-5.918466567993164,7.350199222564697
1759864127046919700,3.554919677734375,-5.418078422546387,-6.232107162475586,7.647080421447754
1759864127056990500,3.564990478515625,-5.846640586853027,-6.368576526641846,7.838616371154785
1759864127067030500,3.575030517578125,-6.038176536560059,-6.3949127197265625,8.018181800842285
1759864127077101600,3.5851015625,-5.856217384338379,-6.311115741729736,7.814674377441406
1759864127087172400,3.59517236328125,-5.568912982940674,-5.985504150390625,7.462726593017578
1759864127097243100,3.6052431640625,-5.504269599914551,-5.784391403198242,7.223306655883789
1759864127107344400,3.615344482421875,-5.3797712326049805,-5.66228723526001,7.132327079772949
1759864127117384700,3.625384765625,-5.724536418914795,-5.6670756340026855,7.223306655883789
1759864127127455500,3.63545556640625,-6.167463779449463,-5.91128396987915,7.3885064125061035
1759864127157698300,3.6656982421875,-6.933608055114746,-6.3518171310424805,6.871358871459961
1759864127167769000,3.67576904296875,-6.962338447570801,-6.332663536071777,6.596025466918945
1759864127177839900,3.68583984375,-7.101202011108398,-6.244078159332275,6.09324312210083
1759864127187941400,3.69594140625,-7.101202011108398,-6.244078159332275,6.09324312210083
1759864127197981700,3.705981689453125,-7.357381820678711,-5.760449409484863,5.698200225830078
1759864127208052500,3.716052490234375,-7.254431247711182,-5.190629482269287,5.262455463409424
1759864127218123300,3.726123291015625,-7.082048416137695,-4.668693542480469,4.955997467041016
1759864127228194000,3.736194091796875,-6.861782073974609,-4.572925090789795,4.888959884643555
1759864127258406400,3.766406494140625,-7.168240070343018,-5.925649166107178,5.147533416748047
1759864127268507600,3.776507568359375,-7.287950038909912,-6.174646377563477,5.171475887298584
1759864127278609000,3.78660888671875,-7.129932880401611,-6.375759124755859,5.020640850067139
1759864127288680000,3.796679931640625,-6.675034523010254,-6.356605529785156,4.8722004890441895
1759864127298750700,3.806750732421875,-6.246472358703613,-6.009446144104004,4.69024133682251
1759864127308790800,3.816790771484375,-5.92325496673584,-5.810727596282959,4.697423934936523
1759864127318861800,3.82686181640625,-5.856217384338379,-5.846640586853027,4.797980308532715
1759864127328932600,3.8369326171875,-6.016628742218018,-6.258443355560303,5.027823448181152
1759864127339033900,3.847033935546875,-6.033388137817383,-6.593631267547607,5.458779811859131
1759864127359206000,3.867205810546875,-6.064512729644775,-6.27280855178833,5.949591159820557
1759864127369307100,3.87730712890625,-6.050147533416748,-5.884947776794434,5.920860767364502
1759864127379347500,3.887347412109375,-5.6910176277160645,-5.475539207458496,5.5976433753967285
1759864127389449000,3.897448974609375,-5.4013190269470215,-5.080495834350586,5.406107425689697
1759864127399550200,3.90755029296875,-5.2672438621521,-4.7620673179626465,5.147533416748047
1759864127409590500,3.917590576171875,-5.228936672210693,-4.55616569519043,5.250484466552734
1759864127419661300,3.927661376953125,-5.293580055236816,-4.436455726623535,5.2265424728393555
1759864127429732000,3.937732177734375,-5.238513469696045,-4.541800498962402,5.370194435119629
1759864127439833300,3.947833251953125,-5.327098846435547,-4.637568473815918,5.339069843292236
1759864127460005400,3.96800537109375,-4.941632270812988,-4.965574264526367,5.6191911697387695
1759864127470107000,3.97810693359375,-4.812345504760742,-5.0900726318359375,5.631162166595459
1759864127480208100,3.9882080078125,-4.642356872558594,-5.123591423034668,5.578489780426025
1759864127490248400,3.99824853515625,-4.656722068786621,-5.044582843780518,5.47075080871582
1759864127500319200,4.0083193359375,-4.8267107009887695,-4.972756862640381,5.463568210601807
1759864127510390000,4.01839013671875,-4.910507678985596,-4.809951305389404,5.614402770996094
1759864127520460800,4.028460693359375,-4.898536682128906,-5.008669853210449,5.578489780426025
1759864127530562000,4.03856201171875,-5.070919036865234,-5.336675643920898,5.717353820800781
1759864127540663600,4.04866357421875,-5.279214859008789,-5.6455278396606445,5.801150798797607
1759864127550764800,4.058764892578125,-5.3582234382629395,-6.028599739074707,5.999869346618652
1759864127560835600,4.068835693359375,-5.272032260894775,-6.311115741729736,6.141127586364746
1759864127570906400,4.07890625,-5.063736438751221,-6.430825710296631,6.141127586364746
1759864127580977200,4.08897705078125,-4.927267074584961,-6.294356346130371,5.987898349761963
1759864127591048000,4.0990478515625,-5.17626428604126,-6.069301128387451,5.918466567993164
1759864127601149200,4.109149169921875,-5.66228723526001,-5.904101371765137,6.141127586364746
1759864127611250700,4.119250732421875,-6.124367713928223,-6.208165168762207,6.485892295837402
1759864127621321500,4.129321533203125,-6.248866558074951,-6.722918510437012,6.8043212890625
1759864127631392300,4.139392333984375,-6.552929878234863,-7.189787864685059,7.072471618652344
1759864127641432600,4.1494326171875,-6.871358871459961,-7.280767440795898,7.156269073486328
1759864127671705900,4.179705810546875,-6.842628479003906,-6.864176273345947,6.461950302124023
1759864127681746200,4.18974609375,-6.392518520355225,-7.110779285430908,6.361393928527832
1759864127691847400,4.199847412109375,-6.081272125244141,-7.060500621795654,6.169857978820801
1759864127701949000,4.209948974609375,-6.081272125244141,-7.060500621795654,6.169857978820801
1759864127712050200,4.22005029296875,-5.758055210113525,-6.509834289550781,5.949591159820557
1759864127722121000,4.230120849609375,-5.635950565338135,-5.906495571136475,5.92325496673584
1759864127732191700,4.240191650390625,-5.74129581451416,-5.822698593139648,6.007051944732666
1759864127742262500,4.250262451171875,-5.683835029602051,-5.872976779937744,5.779603004455566
1759864127772536000,4.2805361328125,-6.325480937957764,-5.403713226318359,6.1985883712768555
1759864127782606800,4.29060693359375,-6.967126846313477,-6.016628742218018,6.938396453857422
1759864127792677600,4.300677734375,-7.38132381439209,-6.3949127197265625,7.2783732414245605
1759864127802687500,4.3106875,-7.254431247711182,-6.519411087036133,6.84981107711792
1759864127812788700,4.320788818359375,-7.38132381439209,-6.023811340332031,6.038176536560059
1759864127822859500,4.330859619140625,-7.649474620819092,-5.152322292327881,5.2265424728393555
1759864127832960800,4.340960693359375,-7.6111674308776855,-4.410119533538818,4.596867084503174
1759864127843001000,4.3510009765625,-7.374141216278076,-3.845088005065918,4.127603530883789
1759864127853102300,4.361102294921875,-7.000645637512207,-3.6798880100250244,3.8355112075805664
1759864127873305000,4.38130517578125,-6.18182897567749,-4.405331134796143,3.869029998779297
1759864127893446700,4.40144677734375,-6.361393928527832,-5.451597213745117,4.932055473327637
1759864127903517400,4.411517333984375,-6.382941722869873,-5.925649166107178,5.415684223175049
1759864127913618700,4.42161865234375,-6.145915985107422,-6.081272125244141,5.659893035888672
1759864127923689500,4.431689453125,-5.813121795654297,-5.940014362335205,5.789179801940918
1759864127933760300,4.44176025390625,-5.475539207458496,-5.693411827087402,5.748478412628174
1759864127943831300,4.451831298828125,-4.93923807144165,-5.30076265335083,5.5114521980285645
1759864127953902000,4.461902099609375,-4.412513732910156,-5.023035049438477,5.286397457122803
1759864127974074000,4.48207421875,-3.471592426300049,-4.522646903991699,4.702212333679199
1759864127994215700,4.502215576171875,-3.375824451446533,-4.469974517822266,4.836287498474121
1759864128004286500,4.512286376953125,-3.2824504375457764,-4.405331134796143,5.214571475982666
1759864128014357200,4.522357177734375,-3.421314239501953,-4.165910720825195,5.43723201751709
1759864128024397600,4.5323974609375,-3.622427225112915,-3.993528366088867,5.506663799285889
1759864128034498800,4.542498779296875,-3.6391866207122803,-3.866635799407959,5.3797712326049805
1759864128044569600,4.552569580078125,-3.7708675861358643,-3.8738183975219727,5.16429328918457
1759864128054640400,4.562640380859375,-3.8307228088378906,-3.9456443786621094,5.092466831207275
1759864128064711400,4.57271142578125,-3.60566782951355,-3.9264907836914062,5.118803024291992
1759864128074782200,4.5827822265625,-3.6846764087677,-4.134786128997803,5.348646640777588
1759864128084853000,4.59285302734375,-3.708618402481079,-4.264073371887207,5.717353820800781
1759864128094923800,4.602923828125,-3.864241600036621,-4.376600742340088,6.13633918762207
1759864128105025000,4.61302490234375,-4.264073371887207,-4.410119533538818,6.629544734954834
1759864128115126300,4.623126220703125,-4.54419469833374,-4.675876140594482,6.856993675231934
1759864128125197000,4.633197021484375,-4.800374507904053,-4.793191909790039,7.0772600173950195
1759864128135267800,4.643267822265625,-5.125985622406006,-5.056553840637207,7.041347026824951
1759864128145369300,4.653369384765625,-5.432443618774414,-5.621585369110107,7.060500621795654
1759864128155440000,4.663440185546875,-5.588066577911377,-6.248866558074951,7.029376029968262
1759864128165541400,4.673541259765625,-5.928043365478516,-6.730101108551025,7.141903877258301
1759864128195784200,4.7037841796875,-6.8162922859191895,-7.319074630737305,7.036558628082275
1759864128226057700,4.7340576171875,-7.084442615509033,-7.216124057769775,6.617573261260986
1759864128236159000,4.744158935546875,-6.7923502922058105,-7.489062786102295,6.610390663146973
1759864128246229800,4.754229736328125,-6.426037311553955,-7.412448406219482,6.514622688293457
1759864128256300500,4.764300537109375,-6.081272125244141,-7.206547260284424,6.464344501495361
1759864128276442400,4.7844423828125,-6.234501361846924,-7.314286231994629,6.979097843170166
1759864128286543600,4.794543701171875,-6.57926607131958,-8.192957878112793,7.457938194274902
1759864128296614400,4.804614501953125,-6.840234279632568,-8.652645111083984,7.582436561584473
1759864128306685200,4.814685302734375,-6.936002254486084,-8.286332130432129,6.809109687805176
1759864128316786400,4.824786376953125,-7.309497833251953,-6.98628044128418,5.736507415771484
1759864128326857200,4.834857177734375,-7.331045627593994,-5.693411827087402,4.987122058868408
1759864128336928000,4.844927978515625,-7.663839817047119,-5.015852451324463,4.929661273956299
1759864128346998800,4.854998779296875,-7.587224960327148,-5.631162166595459,5.298368453979492
1759864128357100300,4.865100341796875,-7.603984832763672,-6.904877662658691,5.717353820800781
1759864128377211400,4.88521142578125,-8.621520042419434,-8.382100105285645,5.264849662780762
1759864128387251700,4.895251708984375,-9.150638580322266,-8.212111473083496,4.611232280731201
1759864128397353000,4.90535302734375,-9.097966194152832,-7.481880187988281,4.108449935913086
1759864128407393300,4.915393310546875,-8.276755332946777,-6.888118267059326,3.892971992492676
1759864128417464000,4.925464111328125,-7.395689010620117,-6.572083473205566,4.027047157287598
1759864128427534800,4.935534912109375,-6.833051681518555,-6.078877925872803,4.094084739685059
1759864128437605600,4.945605712890625,-6.256049156188965,-5.671864032745361,4.412513732910156
1759864128447676400,4.955676513671875,-6.0621185302734375,-5.791574001312256,4.9152960777282715
1759864128457777700,4.965777587890625,-5.889736175537109,-6.234501361846924,5.47075080871582
1759864128477919200,4.985919189453125,-5.501875400543213,-6.4164605140686035,5.954379558563232
1759864128487990000,4.995989990234375,-5.140350818634033,-6.021417140960693,5.789179801940918
1759864128498060800,5.006060791015625,-4.78122091293335,-5.640739440917969,5.52821159362793
1759864128508131800,5.0161318359375,-4.532223701477051,-5.252878665924072,5.327098846435547
1759864128518202600,5.02620263671875,-4.338293552398682,-4.987122058868408,5.130774021148682
1759864128528303900,5.036303955078125,-4.333505153656006,-4.793191909790039,5.1116204261779785
1759864128538405000,5.046405029296875,-4.5154643058776855,-4.81473970413208,5.157110691070557
1759864128548476000,5.056475830078125,-4.884171485900879,-4.786009311676025,5.216965675354004
1759864128558577200,5.0665771484375,-5.003881454467773,-4.3622355461120605,5.4013190269470215
1759864128568617500,5.076617431640625,-5.063736438751221,-3.97916316986084,5.451597213745117
1759864128608900900,5.11690087890625,-4.173093795776367,-4.098873138427734,5.018246650695801
1759864128618971600,5.1269716796875,-4.268861770629883,-4.106055736541748,5.092466831207275
1759864128629073000,5.137072998046875,-4.352658748626709,-4.216189384460449,5.1116204261779785
1759864128639143700,5.147143798828125,-4.345476150512695,-4.436455726623535,5.114014625549316
1759864128649214500,5.15721435546875,-4.335899353027344,-4.618414878845215,5.169081687927246
1759864128659285200,5.16728515625,-4.503493309020996,-4.795586109161377,5.07570743560791
1759864128669386500,5.177386474609375,-4.345476150512695,-4.853046894073486,5.006275653839111
1759864128709700400,5.217700439453125,-4.644751071929932,-5.896918773651123,5.154716491699219
1759864128719801600,5.227801513671875,-5.214571475982666,-6.651092529296875,5.564124584197998
1759864128729902800,5.23790283203125,-5.214571475982666,-6.651092529296875,5.564124584197998
1759864128739973600,5.2479736328125,-5.726930618286133,-7.594407558441162,6.124367713928223
1759864128750044700,5.258044677734375,-6.332663536071777,-8.020575523376465,6.698976516723633
1759864128760115500,5.268115478515625,-6.833051681518555,-7.994239330291748,7.237671852111816
1759864128770186200,5.278186279296875,-7.117961883544922,-7.728483200073242,7.376535415649414
1759864128800429000,5.308428955078125,-6.739677906036377,-7.807491779327393,6.3518171310424805
1759864128810530300,5.3185302734375,-6.411672115325928,-7.295132637023926,6.447585105895996
1759864128820631800,5.3286318359375,-6.53377628326416,-7.196970462799072,6.732495307922363
1759864128830733000,5.338733154296875,-7.015010833740234,-7.479485988616943,6.9910688400268555
1759864128840834300,5.348834228515625,-7.4770917892456055,-7.702147006988525,6.9910688400268555
1759864128850905000,5.358905029296875,-7.6566572189331055,-7.496245384216309,6.890512466430664
1759864128861006600,5.369006591796875,-8.372523307800293,-6.919242858886719,7.01979923248291
1759864128871046700,5.379046630859375,-8.53293514251709,-6.339846134185791,7.204153060913086
1759864128901228500,5.409228515625,-9.05487060546875,-6.248866558074951,6.677428722381592
1759864128911299300,5.41929931640625,-9.220070838928223,-6.2632317543029785,6.114790916442871
1759864128931502000,5.439502197265625,-9.253589630126953,-5.518634796142578,4.824316501617432
1759864128941603300,5.449603271484375,-9.421183586120605,-4.6950297355651855,4.49870491027832
1759864128951674000,5.459674072265625,-9.375694274902344,-3.995922565460205,4.417302131652832
1759864128961775600,5.469775634765625,-8.868123054504395,-3.3949780464172363,4.4508209228515625
1759864128971846400,5.479846435546875,-7.869740962982178,-3.3470940589904785,4.369418144226074
1759864129012160000,5.520159912109375,-4.733336925506592,-5.0254292488098145,4.522646903991699
1759864129022230800,5.530230712890625,-4.285621166229248,-5.082890033721924,4.627991676330566
1759864129032332000,5.54033203125,-4.189853191375732,-5.094861030578613,4.7620673179626465
1759864129042311400,5.5503115234375,-4.034229755401611,-5.2049946784973145,4.824316501617432
1759864129052382200,5.56038232421875,-3.8546648025512695,-5.032611846923828,4.829104900360107
1759864129062483500,5.5704833984375,-3.7205893993377686,-4.711789131164551,4.836287498474121
1759864129072523800,5.580523681640625,-3.6296098232269287,-4.434061527252197,4.876988887786865
1759864129102675200,5.61067529296875,-4.268861770629883,-4.714183330535889,4.774038314819336
1759864129112776400,5.6207763671875,-4.599261283874512,-4.886565685272217,4.862623691558838
1759864129122816800,5.630816650390625,-5.018246650695801,-4.853046894073486,4.910507678985596
1759864129132887600,5.640887451171875,-5.178658485412598,-4.685452938079834,4.845864295959473
1759864129142988800,5.65098876953125,-5.236119270324707,-4.7405195236206055,4.845864295959473
1759864129153090300,5.66109033203125,-5.262455463409424,-4.793191909790039,4.702212333679199
1759864129163100000,5.671099853515625,-5.147533416748047,-4.73573112487793,4.7189717292785645
1759864129173170700,5.681170654296875,-5.166687488555908,-4.668693542480469,4.824316501617432
1759864129183272200,5.691272216796875,-5.116408824920654,-4.7189717292785645,4.987122058868408
1759864129203383300,5.71138330078125,-4.963180065155029,-5.188235282897949,5.621585369110107
1759864129213484500,5.721484619140625,-5.054159641265869,-5.4013190269470215,6.14831018447876
1759864129223585800,5.731585693359375,-5.058948040008545,-5.468356609344482,6.466738700866699
1759864129233656600,5.741656494140625,-5.058948040008545,-5.468356609344482,6.466738700866699
1759864129243697000,5.75169677734375,-5.236119270324707,-5.542576789855957,6.888118267059326
1759864129253798100,5.761798095703125,-5.413290023803711,-5.683835029602051,7.333439826965332
1759864129263899600,5.771899658203125,-5.564124584197998,-5.686229228973389,7.704541206359863
1759864129273970400,5.781970458984375,-5.829881191253662,-5.566518783569336,7.850587368011475
1759864129284010800,5.7920107421875,-6.215347766876221,-5.298368453979492,7.960720539093018
1759864129314253600,5.822253662109375,-7.053318023681641,-5.815515995025635,7.955932140350342
1759864129324294000,5.8322939453125,-7.015010833740234,-6.356605529785156,7.65186882019043
1759864129334334200,5.842334228515625,-6.892906665802002,-6.538564682006836,7.196970462799072
1759864129344405000,5.852405029296875,-6.756437301635742,-6.485892295837402,6.878541469573975
1759864129354475800,5.862475830078125,-6.938396453857422,-6.411672115325928,7.194576263427734
1759864129364455000,5.872454833984375,-7.304709434509277,-6.943184852600098,7.673416614532471
1759864129374556200,5.88255615234375,-7.738059997558594,-7.644686222076416,7.869740962982178
1759864129384657700,5.89265771484375,-7.615955829620361,-7.486668586730957,7.60637903213501
1759864129394759000,5.902759033203125,-7.266402244567871,-6.382941722869873,6.993463039398193
1759864129414931000,5.922930908203125,-7.220912456512451,-5.1331682205200195,5.398924827575684
1759864129424971300,5.93297119140625,-7.311892032623291,-5.245696067810059,5.066130638122559
1759864129435042000,5.9430419921875,-7.5632829666137695,-5.906495571136475,5.020640850067139
1759864129445143600,5.9531435546875,-7.723694801330566,-6.339846134185791,5.3342814445495605
1759864129455214300,5.96321435546875,-7.99184513092041,-6.4380083084106445,5.382165431976318
1759864129465315600,5.973315673828125,-8.190564155578613,-6.050147533416748,5.212177276611328
1759864129475386400,5.983386474609375,-7.996633529663086,-5.700594425201416,4.8602294921875
1759864129485457200,5.99345703125,-7.668628215789795,-5.420472621917725,4.331110954284668
1759864129495528000,6.00352783203125,-7.359776020050049,-5.389348030090332,4.017470359802246
1759864129515639000,6.02363916015625,-6.720524311065674,-5.990292549133301,4.596867084503174
1759864129545881900,6.0538818359375,-6.251260757446289,-6.440402507781982,5.298368453979492
1759864129555922200,6.063922119140625,-6.133944988250732,-6.387730121612549,5.317522048950195
1759864129565993000,6.073992919921875,-5.889736175537109,-5.889736175537109,5.070919036865234
1759864129576063700,6.084063720703125,-5.633556365966797,-5.322310447692871,4.786009311676025
1759864129586165200,6.094165283203125,-5.365406036376953,-4.9583916664123535,4.656722068786621
1759864129596266500,6.1042666015625,-5.116408824920654,-4.726154327392578,4.4292731285095215
1759864129606337300,6.114337158203125,-4.867412090301514,-4.383783340454102,4.424484729766846
1759864129626509300,6.13450927734375,-4.563348293304443,-3.9408559799194336,4.54419469833374
1759864129636580000,6.144580078125,-4.558559894561768,-3.7876269817352295,4.778826713562012
1759864129646651000,6.15465087890625,-4.486733913421631,-3.7014358043670654,4.8722004890441895
1759864129656752400,6.16475244140625,-4.4292731285095215,-3.7708675861358643,4.9152960777282715
1759864129666853600,6.174853515625,-4.321534156799316,-3.823540210723877,4.948814868927002
1759864129676955000,6.184954833984375,-4.347870349884033,-3.8786067962646484,4.963180065155029
1759864129687025700,6.195025634765625,-4.405331134796143,-3.93367338180542,5.099649429321289
1759864129697096400,6.205096435546875,-4.51067590713501,-4.151545524597168,5.044582843780518
1759864129707198000,6.215197998046875,-4.522646903991699,-4.481945514678955,4.955997467041016
1759864129737410300,6.245410400390625,-4.800374507904053,-5.1331682205200195,4.795586109161377
1759864129747481000,6.255481201171875,-4.932055473327637,-5.343858242034912,4.888959884643555
1759864129757582300,6.265582275390625,-4.941632270812988,-5.65031623840332,4.987122058868408
1759864129767683800,6.275683837890625,-5.035006046295166,-5.868188381195068,5.027823448181152
1759864129777754600,6.285754638671875,-5.073313236236572,-6.069301128387451,5.166687488555908
1759864129787825400,6.295825439453125,-5.3582234382629395,-6.3973069190979,5.363011837005615
1759864129797896200,6.305896240234375,-5.724536418914795,-6.531382083892822,5.736507415771484
1759864129807967000,6.315967041015625,-6.279991149902344,-6.576871871948242,6.303933143615723
1759864129838209800,6.346209716796875,-7.1706342697143555,-7.802703380584717,7.424419403076172
1759864129848280600,6.356280517578125,-7.405265808105469,-7.338228225708008,7.082048416137695
1759864129858382000,6.366382080078125,-7.539340972900391,-6.619967937469482,6.866570472717285
1759864129878584600,6.38658447265625,-7.026981830596924,-6.04775333404541,7.189787864685059
1759864129888625000,6.396625,-6.48828649520874,-6.095637321472168,7.386112213134766
1759864129898726100,6.40672607421875,-6.327875137329102,-6.196194171905518,7.453149795532227
1759864129908797000,6.416796875,-6.375759124755859,-6.378153324127197,7.376535415649414
1759864129928969200,6.43696923828125,-7.417236804962158,-6.557718276977539,6.703764915466309
1759864129959212000,6.4672119140625,-8.001421928405762,-4.987122058868408,6.746860504150391
1759864129969313300,6.477313232421875,-8.010998725891113,-5.731719017028809,6.7492547035217285
1759864129979384000,6.487384033203125,-7.951143741607666,-6.339846134185791,6.3063273429870605
1759864129989424400,6.49742431640625,-8.128314971923828,-5.975927352905273,5.631162166595459
1759864129999526000,6.50752587890625,-8.437167167663574,-5.240907669067383,4.944026470184326
1759864130009596700,6.5175966796875,-8.633491516113281,-4.54419469833374,4.438849925994873
1759864130049910300,6.55791015625,-7.728483200073242,-4.156333923339844,4.934449672698975
1759864130059981000,6.56798095703125,-7.1706342697143555,-5.207388877868652,5.410895824432373
1759864130070082300,6.578082275390625,-6.564900875091553,-5.525817394256592,5.4875102043151855
1759864130090254600,6.598254638671875,-5.583278179168701,-5.027823448181152,5.305551052093506
1759864130100325400,6.608325439453125,-5.262455463409424,-4.707000732421875,5.104437828063965
1759864130110396200,6.618396240234375,-5.315127849578857,-4.721365928649902,5.099649429321289
1759864130120467000,6.628467041015625,-5.128379821777344,-4.896142482757568,5.228936672210693
1759864130130568200,6.638568115234375,-4.944026470184326,-4.81473970413208,5.432443618774414
1759864130160780500,6.668780517578125,-4.37420654296875,-4.031835556030273,5.5545477867126465
1759864130170851300,6.678851318359375,-4.390965938568115,-3.88818359375,5.39174222946167
1759864130180952800,6.688952880859375,-4.333505153656006,-3.9408559799194336,5.339069843292236
1759864130191023600,6.699023681640625,-4.400542736053467,-3.9217023849487305,5.166687488555908
1759864130201094400,6.709094482421875,-4.364629745483398,-3.8570590019226074,5.128379821777344
1759864130211195600,6.719195556640625,-4.438849925994873,-3.9839515686035156,5.020640850067139
1759864130221266400,6.729266357421875,-4.532223701477051,-4.122815132141113,4.917690277099609
1759864130231367700,6.73936767578125,-4.680664539337158,-4.364629745483398,4.786009311676025
1759864130251509500,6.759509521484375,-4.685452938079834,-4.680664539337158,4.884171485900879
1759864130261610800,6.76961083984375,-4.685452938079834,-4.680664539337158,4.884171485900879
1759864130271651000,6.779651123046875,-4.675876140594482,-4.778826713562012,4.922478675842285
1759864130281752300,6.78975244140625,-4.546588897705078,-4.829104900360107,5.078101634979248
1759864130291853600,6.799853515625,-4.642356872558594,-4.953603267669678,5.118803024291992
1759864130301955000,6.809955078125,-4.955997467041016,-5.288791656494141,5.343858242034912
1759864130312025900,6.82002587890625,-5.106832027435303,-5.5545477867126465,5.616796970367432
1759864130322127000,6.830127197265625,-5.0900726318359375,-5.724536418914795,5.884947776794434
1759864130362471400,6.870471435546875,-5.643133640289307,-6.339846134185791,7.000645637512207
1759864130372572700,6.88057275390625,-6.22731876373291,-6.53377628326416,7.42681360244751
1759864130382674000,6.890673828125,-6.576871871948242,-6.605602264404297,7.682993412017822
1759864130392714200,6.90071435546875,-6.689399719238281,-6.540958881378174,7.771578788757324
1759864130402815500,6.9108154296875,-6.739677906036377,-6.277596950531006,7.570465564727783
1759864130412886300,6.92088623046875,-6.840234279632568,-6.229712963104248,7.536946773529053
1759864130422987800,6.93098779296875,-7.0317702293396,-6.13633918762207,7.496245384216309
1759864130463271000,6.97127099609375,-7.613561630249023,-7.603984832763672,7.903259754180908
1759864130473341700,6.981341796875,-7.663839817047119,-7.802703380584717,7.82185697555542
1759864130483382000,6.991382080078125,-7.603984832763672,-7.38132381439209,7.515398979187012
1759864130493483300,7.001483154296875,-7.225700855255127,-6.84981107711792,6.914454460144043
1759864130503584500,7.01158447265625,-6.847416877746582,-6.296750545501709,6.236895561218262
1759864130513655300,7.0216552734375,-6.785167694091797,-5.827486991882324,5.813121795654297
1759864130523695600,7.031695556640625,-6.873753070831299,-5.889736175537109,5.501875400543213
1759864130533797000,7.041797119140625,-6.885724067687988,-6.552929878234863,5.4013190269470215
1759864130574080300,7.082080322265625,-6.691793918609619,-5.7987565994262695,4.266467571258545
1759864130594252300,7.102252197265625,-6.502651691436768,-4.989516258239746,4.022258758544922
1759864130614393900,7.122393798828125,-6.308721542358398,-5.458779811859131,5.145139217376709
1759864130624464600,7.132464599609375,-6.447585105895996,-5.410895824432373,5.602431774139404
1759864130634535400,7.142535400390625,-6.5912370681762695,-5.099649429321289,5.7125654220581055
1759864130654616000,7.162615966796875,-6.888118267059326,-4.462791919708252,5.48272180557251
1759864130664686800,7.172686767578125,-6.528987884521484,-4.405331134796143,5.171475887298584
1759864130674788000,7.1827880859375,-5.9304375648498535,-4.671087741851807,4.802768707275391
1759864130684828400,7.192828369140625,-5.432443618774414,-5.080495834350586,4.405331134796143
1759864130694899200,7.202899169921875,-5.102043628692627,-5.4013190269470215,4.094084739685059
1759864130704970000,7.212969970703125,-5.020640850067139,-5.499481201171875,4.015076160430908
1759864130715071500,7.223071533203125,-4.932055473327637,-5.3582234382629395,3.847482204437256
1759864130725111800,7.23311181640625,-4.93923807144165,-5.128379821777344,3.847482204437256
1759864130735182600,7.2431826171875,-4.754884719848633,-5.020640850067139,3.9456443786621094
1759864130745283800,7.253283935546875,-4.663905143737793,-4.8937482833862305,4.10366153717041
1759864130755354600,7.263354736328125,-4.525041103363037,-5.039794445037842,4.311957359313965
1759864130785475600,7.2934755859375,-4.402936935424805,-5.327098846435547,4.572925090789795
1759864130795576800,7.303576904296875,-4.37420654296875,-5.485116004943848,4.639962673187256
1759864130805647600,7.313647705078125,-4.553771495819092,-5.537788391113281,4.771644115447998
1759864130815748900,7.323748779296875,-4.67827033996582,-5.746084213256836,4.941632270812988
1759864130825850000,7.33385009765625,-4.790797710418701,-6.121973514556885,5.013458251953125
1759864130835951600,7.34395166015625,-4.857835292816162,-6.4595561027526855,4.982333660125732
1759864130846052900,7.354052978515625,-5.011064052581787,-6.53377628326416,5.066130638122559
1759864130856123600,7.36412353515625,-5.398924827575684,-6.452373504638672,5.102043628692627
1759864130866194400,7.3741943359375,-5.971138954162598,-6.3518171310424805,5.351040840148926
1759864130886366500,7.394366455078125,-6.358999729156494,-6.224924564361572,5.750872611999512
1759864130906538800,7.414538818359375,-6.2632317543029785,-6.959944248199463,6.258443355560303
1759864130916609500,7.424609619140625,-6.157886981964111,-7.73087739944458,6.754043102264404
1759864130926710800,7.434710693359375,-6.433219909667969,-8.176198959350586,7.309497833251953
1759864130936781600,7.444781494140625,-6.916848659515381,-7.943961143493652,7.773972988128662
1759864130946822000,7.45482177734375,-7.453149795532227,-7.206547260284424,7.915230751037598
1759864130956892700,7.464892578125,-7.65186882019043,-6.564900875091553,7.922413349151611
1759864130966963500,7.47496337890625,-7.565677165985107,-5.983109951019287,8.056488990783691
1759864130987135700,7.4951357421875,-7.228095054626465,-6.291962146759033,8.133103370666504
1759864130997206500,7.50520654296875,-7.127538681030273,-6.610390663146973,7.999027729034424
1759864131007177200,7.51517724609375,-7.151480674743652,-6.687005519866943,7.63989782333374
1759864131017248000,7.525248046875,-7.268796443939209,-6.682217121124268,7.395689010620117
1759864131027288300,7.535288330078125,-7.529764175415039,-6.256049156188965,6.777985095977783
1759864131037359000,7.545359130859375,-7.632715225219727,-5.817910194396973,6.294356346130371
1759864131047430000,7.555429931640625,-7.762001991271973,-5.609614372253418,5.906495571136475
1759864131057500700,7.565500732421875,-7.905653953552246,-5.430049419403076,5.674258232116699
1759864131087682600,7.5956826171875,-8.161833763122559,-5.65031623840332,5.413290023803711
1759864131097753300,7.60575341796875,-8.147468566894531,-5.51624059677124,5.080495834350586
1759864131107793700,7.615793701171875,-7.94635534286499,-4.95120906829834,4.788403511047363
1759864131117834000,7.625833984375,-7.692570209503174,-4.28322696685791,4.525041103363037
1759864131127904800,7.63590478515625,-7.354987621307373,-3.845088005065918,4.302380561828613
1759864131137975600,7.6459755859375,-6.84981107711792,-3.5410242080688477,4.141968727111816
1759864131158147600,7.666147705078125,-6.14831018447876,-3.7493197917938232,4.211400985717773
1759864131168218400,7.67621826171875,-5.975927352905273,-3.9695863723754883,4.424484729766846
1759864131178320000,7.68631982421875,-5.647922039031982,-4.197035789489746,4.534617900848389
1759864131188390700,7.696390625,-5.200206279754639,-4.321534156799316,4.541800498962402
1759864131198431000,7.706430908203125,-4.630385875701904,-4.347870349884033,4.345476150512695
1759864131208501800,7.716501708984375,-4.228160381317139,-4.393360137939453,4.046200752258301
1759864131218572500,7.726572509765625,-4.027047157287598,-4.410119533538818,3.8594532012939453
1759864131228673800,7.736673828125,-3.9384617805480957,-4.3861775398254395,3.928884983062744
1759864131238744600,7.74674462890625,-4.1156325340271,-4.410119533538818,4.077325344085693
1759864131248815400,7.7568154296875,-4.280832767486572,-4.649539470672607,4.402936935424805
1759864131258886100,7.76688623046875,-4.383783340454102,-4.9583916664123535,4.584896087646484
1759864131268987600,7.776987548828125,-4.383783340454102,-4.9583916664123535,4.584896087646484
1759864131289098500,7.797098388671875,-4.261679172515869,-4.924872875213623,4.584896087646484
1759864131299169500,7.80716943359375,-4.163516521453857,-4.687847137451172,4.522646903991699
1759864131309240300,7.817240234375,-4.278438568115234,-4.496310710906982,4.479551315307617
1759864131319341600,7.827341552734375,-4.400542736053467,-4.446032524108887,4.613626480102539
1759864131329382000,7.8373818359375,-4.570530891418457,-4.446032524108887,4.829104900360107
1759864131339452700,7.84745263671875,-4.824316501617432,-4.917690277099609,5.128379821777344
1759864131349554000,7.857553955078125,-5.183446884155273,-5.245696067810059,5.341464042663574
1759864131359624700,7.867624755859375,-5.458779811859131,-5.5545477867126465,5.4228668212890625
1759864131369695500,7.877695556640625,-5.7341132164001465,-5.456385612487793,5.43723201751709
1759864131410009300,7.91800927734375,-6.1315507888793945,-6.13633918762207,6.370970726013184
1759864131420110600,7.928110595703125,-6.19379997253418,-6.598419666290283,6.689399719238281
1759864131430181400,7.938181396484375,-6.433219909667969,-6.993463039398193,7.082048416137695
1759864131440221700,7.9482216796875,-6.8378400802612305,-7.194576263427734,7.496245384216309
1759864131450292500,7.95829248046875,-7.218518257141113,-7.208941459655762,7.802703380584717
1759864131460393700,7.968393798828125,-7.663839817047119,-7.029376029968262,7.8314337730407715
1759864131470464500,7.978464599609375,-7.9176249504089355,-6.732495307922363,7.702147006988525
1759864131510717200,8.01871728515625,-7.706935405731201,-7.208941459655762,7.5968017578125
1759864131520788000,8.0287880859375,-8.085219383239746,-7.481880187988281,7.740454196929932
1759864131530858800,8.038858642578125,-8.422801971435547,-7.570465564727783,7.42681360244751
1759864131550969900,8.058969970703124,-8.44195556640625,-6.2201361656188965,6.40927791595459
1759864131561010200,8.06901025390625,-7.915230751037598,-5.2911858558654785,5.851428985595703
1759864131571081000,8.0790810546875,-7.266402244567871,-5.48272180557251,5.16429328918457
1759864131581151700,8.08915185546875,-7.043741226196289,-6.342240333557129,4.367023944854736
1759864131591222500,8.099222412109375,-6.864176273345947,-6.519411087036133,3.7445313930511475
1759864131601293300,8.109293212890625,-6.892906665802002,-5.825092792510986,3.6176388263702393
1759864131611394800,8.119394775390624,-6.914454460144043,-5.193023681640625,4.206612586975098
1759864131621496000,8.12949609375,-6.689399719238281,-5.406107425689697,4.824316501617432
1759864131631597300,8.139597412109374,-6.560112476348877,-5.731719017028809,5.003881454467773
1759864131641637600,8.1496376953125,-6.253654956817627,-5.635950565338135,4.72376012802124
1759864131651739000,8.15973876953125,-6.066906929016113,-5.284003257751465,4.381389141082764
1759864131661810000,8.169809814453124,-5.872976779937744,-4.977545261383057,4.244919776916504
1759864131671880700,8.179880615234374,-5.702988624572754,-4.972756862640381,4.309563159942627
1759864131681951500,8.189951416015624,-5.6191911697387695,-5.307945251464844,4.455609321594238
1759864131692022300,8.200022216796874,-5.544970989227295,-5.5545477867126465,4.546588897705078
1759864131712133400,8.22013330078125,-5.552153587341309,-5.109226226806641,4.299986362457275
1759864131722204200,8.2302041015625,-5.4875102043151855,-4.651933670043945,4.218583583831787
1759864131732244500,8.240244384765624,-5.420472621917725,-4.6471452713012695,4.041412353515625
1759864131742345700,8.250345703125,-5.2480902671813965,-4.692635536193848,4.153939723968506
1759864131752386000,8.260385986328124,-5.262455463409424,-4.683058738708496,4.230554580688477
1759864131762487300,8.2704873046875,-5.262455463409424,-4.683058738708496,4.230554580688477
1759864131772558000,8.28055810546875,-5.492298603057861,-4.668693542480469,4.331110954284668
1759864131782659300,8.290659423828124,-5.475539207458496,-4.790797710418701,4.448426723480225
1759864131792699600,8.30069970703125,-5.178658485412598,-4.879383087158203,4.436455726623535
1759864131802740000,8.310739990234374,-4.98472785949707,-4.9583916664123535,4.484339714050293
1759864131812810800,8.320810791015624,-4.824316501617432,-4.927267074584961,4.587290287017822
1759864131822851000,8.33085107421875,-4.790797710418701,-5.023035049438477,4.668693542480469
1759864131832952300,8.340952392578124,-4.8267107009887695,-4.881777286529541,4.876988887786865
1759864131843053600,8.351053466796875,-4.929661273956299,-4.819528102874756,5.023035049438477
1759864131853124600,8.36112451171875,-4.9368438720703125,-4.946420669555664,5.109226226806641
1759864131863195400,8.3711953125,-5.020640850067139,-5.183446884155273,5.233725070953369
1759864131873266200,8.38126611328125,-5.0685248374938965,-5.4013190269470215,5.228936672210693
1759864131883306500,8.391306396484374,-4.994304656982422,-5.501875400543213,5.279214859008789
1759864131893377300,8.401377197265624,-5.018246650695801,-5.432443618774414,5.257667064666748
1759864131903539500,8.41153955078125,-5.109226226806641,-5.475539207458496,5.2480902671813965
1759864131913610200,8.4216103515625,-5.2265424728393555,-5.588066577911377,5.372588634490967
1759864131953924000,8.461924072265624,-6.007051944732666,-6.811503887176514,6.1530985832214355
1759864131964025300,8.472025390625,-6.40927791595459,-7.249642848968506,6.320692539215088
1759864131974126600,8.482126708984374,-7.005434036254883,-7.469909191131592,6.607996463775635
1759864131984228000,8.49222802734375,-7.319074630737305,-7.266402244567871,6.682217121124268
1759864131994299000,8.502298828125,-7.735665798187256,-6.897695064544678,6.675034523010254
1759864132004369700,8.51236962890625,-7.682993412017822,-6.313509941101074,6.5696892738342285
1759864132014471000,8.522470947265624,-7.491456985473633,-6.232107162475586,6.603208065032959
1759864132034612500,8.542612548828124,-7.5848307609558105,-7.026981830596924,7.362170219421387
1759864132044652800,8.55265283203125,-8.056488990783691,-7.599195957183838,7.419631004333496
1759864132054754000,8.562754150390624,-8.537723541259766,-7.750030994415283,7.091625213623047
1759864132064824800,8.572824951171874,-8.762778282165527,-7.259219646453857,6.718130111694336
1759864132074895600,8.5828955078125,-8.49941635131836,-6.715735912322998,6.033388137817383
1759864132084875000,8.592875,-8.061277389526367,-6.162675380706787,5.408501625061035
1759864132094976300,8.602976318359374,-7.491456985473633,-5.9974751472473145,4.862623691558838
1759864132105077500,8.613077392578125,-6.9240312576293945,-6.023811340332031,4.663905143737793
1759864132115179000,8.623178955078124,-6.694188117980957,-6.0597243309021,4.692635536193848
1759864132135290000,8.6432900390625,-7.082048416137695,-5.279214859008789,5.623979568481445
1759864132145361000,8.65336083984375,-7.105990409851074,-4.505887508392334,5.78678560256958
1759864132155431700,8.663431640625,-7.010222434997559,-3.9863457679748535,5.779603004455566
1759864132165472000,8.673471923828124,-6.856993675231934,-3.383007049560547,5.590460777282715
1759864132175573200,8.6835732421875,-6.617573261260986,-3.0597896575927734,5.556941986083984
1759864132185674500,8.693674560546874,-6.203376770019531,-3.227383852005005,5.537788391113281
1759864132195775700,8.703775634765625,-5.846640586853027,-3.6822822093963623,5.415684223175049
1759864132205816000,8.713816162109374,-5.578489780426025,-4.082113742828369,5.17626428604126
1759864132215886800,8.723886962890624,-5.4252610206604,-4.182670593261719,5.114014625549316
1759864132236059100,8.74405908203125,-5.178658485412598,-3.428496837615967,5.130774021148682
1759864132256170200,8.764170166015624,-4.651933670043945,-3.6798880100250244,5.2265424728393555
1759864132266271500,8.774271484375,-4.460397720336914,-4.153939723968506,5.1810526847839355
1759864132276342300,8.78434228515625,-4.460397720336914,-4.153939723968506,5.1810526847839355
1759864132286382600,8.794382568359374,-4.153939723968506,-4.553771495819092,5.224148273468018
1759864132296483800,8.80448388671875,-4.173093795776367,-4.869806289672852,5.372588634490967
1759864132306554600,8.8145546875,-4.307168960571289,-5.027823448181152,5.5329999923706055
1759864132316625400,8.82462548828125,-4.4508209228515625,-5.12119722366333,5.585672378540039
1759864132336767000,8.84476708984375,-4.355052947998047,-4.95120906829834,5.1116204261779785
1759864132346837800,8.854837646484375,-4.357447147369385,-5.0469770431518555,4.8602294921875
1759864132356908500,8.864908447265625,-4.288015365600586,-5.240907669067383,4.829104900360107
1759864132366948900,8.874948974609374,-4.28322696685791,-5.47075080871582,4.845864295959473
1759864132377050400,8.88505029296875,-4.54419469833374,-5.657498836517334,4.917690277099609
1759864132387182000,8.89518212890625,-4.817133903503418,-5.793968200683594,4.977545261383057
1759864132397222400,8.905222412109374,-5.0469770431518555,-5.829881191253662,5.252878665924072
1759864132407293200,8.915293212890624,-5.0876784324646,-5.643133640289307,5.406107425689697
1759864132417394400,8.92539453125,-5.099649429321289,-5.492298603057861,5.518634796142578
1759864132467748600,8.97574853515625,-6.186617374420166,-6.540958881378174,6.361393928527832
1759864132477819400,8.9858193359375,-6.481103897094727,-6.8809356689453125,6.797138690948486
1759864132487920600,8.995920654296874,-6.7277069091796875,-7.067683219909668,7.0341644287109375
1759864132497991400,9.005991455078124,-7.309497833251953,-6.557718276977539,6.9910688400268555
1759864132508062200,9.016062255859374,-7.570465564727783,-5.928043365478516,6.9455790519714355
1759864132518133000,9.026133056640624,-7.558494567871094,-5.913678169250488,6.88332986831665
1759864132528203800,9.036203857421874,-7.400477409362793,-6.524199485778809,7.024587631225586
1759864132558416100,9.066416015625,-7.931990146636963,-8.38688850402832,8.188169479370117
1759864132568487200,9.076487060546874,-8.674192428588867,-8.497021675109863,8.224082946777344
1759864132578558000,9.086557861328124,-9.227252960205078,-7.68538761138916,7.8960771560668945
1759864132588659200,9.0966591796875,-9.299078941345215,-7.053318023681641,7.247248649597168
1759864132598699500,9.106699462890624,-8.571242332458496,-6.576871871948242,6.512228488922119
1759864132608739800,9.11673974609375,-7.60637903213501,-6.356605529785156,5.6191911697387695
1759864132618841000,9.126841064453124,-6.835445880889893,-6.296750545501709,4.800374507904053
1759864132628881400,9.13688134765625,-7.022193431854248,-6.698976516723633,4.422090530395508
1759864132649023000,9.15702294921875,-7.103596210479736,-7.819462776184082,5.1595048904418945
1759864132669195000,9.177195068359374,-6.854599475860596,-6.6127848625183105,5.109226226806641
1759864132679265800,9.187265869140624,-6.426037311553955,-5.5114521980285645,4.426878929138184
1759864132689336600,9.197336669921874,-6.026205539703369,-4.668693542480469,4.048594951629639
1759864132699407400,9.207407470703124,-5.614402770996094,-4.537012100219727,4.1156325340271
1759864132709508900,9.2175087890625,-5.262455463409424,-5.018246650695801,4.309563159942627
1759864132719610000,9.227610107421874,-5.058948040008545,-5.446808815002441,4.4077253341674805
1759864132729711400,9.23771142578125,-4.812345504760742,-5.410895824432373,4.278438568115234
1759864132759954400,9.267954345703124,-5.032611846923828,-4.532223701477051,4.062960147857666
1759864132770025200,9.278025146484374,-4.994304656982422,-4.094084739685059,4.01268196105957
1759864132780126500,9.28812646484375,-4.994304656982422,-4.094084739685059,4.01268196105957
1759864132790166800,9.298166748046874,-4.786009311676025,-3.8810009956359863,3.883395195007324
1759864132800207000,9.30820703125,-4.637568473815918,-4.144362926483154,3.691859006881714
1759864132810247200,9.3182470703125,-4.546588897705078,-4.345476150512695,3.6727054119110107
1759864132820318200,9.328318115234374,-4.517858505249023,-4.496310710906982,3.73016619682312
1759864132830389000,9.338388916015624,-4.618414878845215,-4.659116744995117,3.9001545906066895
1759864132840459800,9.348459716796874,-4.8051629066467285,-5.056553840637207,4.000710964202881
1759864132850530600,9.358530517578124,-4.757278919219971,-5.327098846435547,4.194641590118408
1759864132870672100,9.378672119140624,-4.824316501617432,-5.5545477867126465,4.565742492675781
1759864132880773400,9.3887734375,-4.742913722991943,-5.6455278396606445,4.666299343109131
1759864132890813700,9.398813720703124,-4.833893299102783,-5.863399982452393,4.800374507904053
1759864132900915000,9.4089150390625,-4.972756862640381,-6.074089527130127,4.948814868927002
1759864132911016400,9.419016357421874,-5.219359874725342,-6.301538944244385,5.17626428604126
1759864132921117700,9.42911767578125,-5.432443618774414,-6.751648902893066,5.446808815002441
1759864132931188500,9.4391884765625,-5.343858242034912,-7.003039836883545,5.628767967224121
1759864132941259300,9.44925927734375,-5.348646640777588,-7.096413612365723,5.765237808227539
1759864132951360500,9.459360595703124,-5.183446884155273,-7.146692276000977,5.803544998168945
1759864132981572900,9.48957275390625,-5.22175407409668,-7.5848307609558105,6.205770969390869
1759864132991674400,9.49967431640625,-5.501875400543213,-7.687781810760498,6.780379295349121
1759864133001745200,9.5097451171875,-5.839457988739014,-7.608773231506348,7.316680431365967
1759864133011846400,9.519846435546874,-6.36378812789917,-7.026981830596924,7.68538761138916
1759864133021947600,9.52994775390625,-6.801927089691162,-6.2416839599609375,7.702147006988525
1759864133031988000,9.539988037109374,-6.885724067687988,-5.609614372253418,7.613561630249023
1759864133042028300,9.5500283203125,-6.562506675720215,-5.863399982452393,7.163451671600342
1759864133062200300,9.570200439453124,-5.916072368621826,-6.619967937469482,6.864176273345947
1759864133072271000,9.58027099609375,-5.942408561706543,-7.046135425567627,7.060500621795654
1759864133082372600,9.59037255859375,-6.1985883712768555,-7.608773231506348,7.240066051483154
1759864133092443400,9.600443359375,-6.584054470062256,-7.709329605102539,7.3693528175354
1759864133102483700,9.610483642578124,-6.92881965637207,-7.319074630737305,7.1490864753723145
1759864133112554500,9.620554443359374,-6.943184852600098,-6.71334171295166,6.698976516723633
1759864133122625300,9.630625244140624,-6.768408298492432,-6.107608318328857,6.2201361656188965
1759864133132696000,9.640696044921874,-6.62236213684082,-5.880159378051758,5.765237808227539
1759864133142766800,9.650766845703124,-6.507440090179443,-5.722142219543457,5.686229228973389
1759864133183111200,9.691111083984374,-7.015010833740234,-4.517858505249023,6.050147533416748
1759864133193182000,9.701181884765624,-7.070077419281006,-4.513070106506348,6.052541732788086
1759864133203252700,9.711252685546874,-6.737283706665039,-4.395754337310791,6.045359134674072
1759864133213293000,9.72129296875,-6.224924564361572,-4.343081951141357,5.9735331535339355
1759864133223333000,9.7313330078125,-5.817910194396973,-4.6040496826171875,5.91128396987915
1759864133233434600,9.7414345703125,-5.456385612487793,-4.972756862640381,5.937620162963867
1759864133243505400,9.75150537109375,-5.456385612487793,-5.183446884155273,5.870582580566406
1759864133253606700,9.761606689453124,-5.4013190269470215,-4.841075897216797,5.849034786224365
1759864133273809400,9.781809326171874,-5.114014625549316,-4.491522312164307,5.612008571624756
1759864133294012000,9.802011962890624,-4.766855716705322,-4.398148536682129,5.446808815002441
1759864133304113200,9.812113037109375,-4.41969633102417,-4.345476150512695,5.260061264038086
1759864133314214700,9.822214599609374,-4.144362926483154,-4.6255974769592285,5.142745018005371
1759864133324285400,9.832285400390624,-3.732560396194458,-5.020640850067139,5.027823448181152
1759864133334356200,9.842356201171874,-3.450044631958008,-5.058948040008545,4.963180065155029
1759864133344457500,9.85245751953125,-3.3901896476745605,-5.104437828063965,4.874594688415527
1759864133354558700,9.862558837890624,-3.315969467163086,-5.011064052581787,4.903325080871582
1759864133384771300,9.892771240234374,-4.019864559173584,-4.474762916564941,4.8937482833862305
1759864133394872600,9.90287255859375,-4.405331134796143,-4.577713489532471,4.867412090301514
1759864133404913000,9.912912841796874,-4.553771495819092,-4.7405195236206055,4.967968463897705
1759864133415014100,9.92301416015625,-4.357447147369385,-4.776432514190674,4.960785865783691
1759864133425115400,9.933115478515624,-4.252102375030518,-4.8267107009887695,5.061342239379883
1759864133435217000,9.943216796875,-4.398148536682129,-4.922478675842285,5.12119722366333
1759864133445287700,9.95328759765625,-4.491522312164307,-5.03021764755249,5.173870086669922
1759864133455389000,9.963388916015624,-4.738125324249268,-5.027823448181152,5.2911858558654785
1759864133475591400,9.98359130859375,-5.370194435119629,-5.2049946784973145,6.114790916442871
1759864133485631700,9.9936318359375,-5.260061264038086,-5.626373767852783,6.469132900238037
1759864133495733200,10.003733154296874,-5.262455463409424,-5.942408561706543,6.7708024978637695
1759864133505804000,10.013803955078124,-5.394136428833008,-6.315904140472412,7.096413612365723
1759864133515874800,10.023874755859374,-5.655104637145996,-6.490680694580078,7.350199222564697
1759864133525884400,10.033884521484374,-5.832275390625,-6.576871871948242,7.668628215789795
1759864133535955200,10.043955078125,-6.011840343475342,-6.694188117980957,7.7428483963012695
1759864133546026000,10.05402587890625,-6.387730121612549,-6.936002254486084,7.817068576812744
1759864133556127500,10.06412744140625,-6.555324077606201,-7.141903877258301,7.893682956695557
1759864133586309400,10.094309326171874,-5.674258232116699,-7.295132637023926,7.15387487411499
1759864133596410600,10.10441064453125,-5.461174011230469,-7.3454108238220215,6.9695210456848145
1759864133606481400,10.1144814453125,-5.363011837005615,-7.4555439949035645,7.12035608291626
1759864133616552200,10.12455224609375,-5.602431774139404,-8.157045364379883,7.271190643310547
1759864133626623000,10.134623046875,-5.904101371765137,-8.573636054992676,7.587224960327148
1759864133636693800,10.14469384765625,-6.277596950531006,-8.518569946289062,7.620744228363037
1759864133646734000,10.154734130859374,-6.756437301635742,-7.766790390014648,7.659051418304443
1759864133656835300,10.16483544921875,-7.137115478515625,-6.938396453857422,7.287950038909912
1759864133676946400,10.184946533203124,-7.484274387359619,-6.327875137329102,6.402095317840576
1759864133686986800,10.19498681640625,-7.51779317855835,-6.598419666290283,5.767632007598877
1759864133697088000,10.205087890625,-7.704541206359863,-6.890512466430664,5.288791656494141
1759864133707159000,10.215158935546874,-7.663839817047119,-6.916848659515381,4.809951305389404
1759864133717199000,10.22519921875,-7.184999465942383,-6.806715488433838,4.252102375030518
1759864133727209000,10.235208984375,-6.636727333068848,-6.54574728012085,3.646369218826294
1759864133737310200,10.245310302734374,-5.990292549133301,-6.174646377563477,3.380612850189209
1759864133747411700,10.25541162109375,-5.504269599914551,-5.937620162963867,3.4787750244140625
1759864133757482500,10.265482421875,-5.224148273468018,-6.121973514556885,3.912125587463379
1759864133797765600,10.305765625,-5.367800235748291,-5.578489780426025,5.360617637634277
1759864133807775500,10.315775390625,-5.5545477867126465,-5.298368453979492,5.559336185455322
1759864133817876700,10.325876708984374,-5.492298603057861,-5.20978307723999,5.3582234382629395
1759864133827978000,10.33597802734375,-5.298368453979492,-5.1116204261779785,5.216965675354004
1759864133838018300,10.346018310546874,-5.051765441894531,-5.303156852722168,5.085284233093262
1759864133848089000,10.356089111328124,-4.738125324249268,-5.396530628204346,4.90571928024292
1759864133858129400,10.36612939453125,-4.532223701477051,-5.513846397399902,4.639962673187256
1759864133868169700,10.376169677734374,-4.5609540939331055,-5.351040840148926,4.3406877517700195
1759864133888250000,10.39625,-4.953603267669678,-4.6950297355651855,4.41969633102417
1759864133908422400,10.41642236328125,-5.015852451324463,-4.742913722991943,4.666299343109131
1759864133938634800,10.446634765625,-4.225766181945801,-5.509057998657227,4.965574264526367
1759864133948736000,10.456736083984374,-4.235342979431152,-5.621585369110107,5.200206279754639
1759864133958776300,10.4667763671875,-4.37420654296875,-5.609614372253418,5.386953830718994
1759864133968847000,10.47684716796875,-4.436455726623535,-5.602431774139404,5.521028995513916
1759864133999090200,10.507090087890624,-4.5154643058776855,-5.7772088050842285,5.5545477867126465
1759864134009130200,10.517130126953125,-4.503493309020996,-6.045359134674072,5.604825973510742
1759864134019231700,10.527231689453124,-4.55616569519043,-6.406883716583252,5.722142219543457
1759864134029302500,10.537302490234374,-4.747702121734619,-6.694188117980957,6.045359134674072
1759864134039373300,10.547373291015624,-4.970362663269043,-6.845022678375244,6.100425720214844
1759864134049444000,10.557444091796874,-5.207388877868652,-6.914454460144043,6.251260757446289
1759864134059545300,10.56754541015625,-5.506663799285889,-7.182605266571045,6.399701118469238
1759864134069585700,10.577585693359374,-5.827486991882324,-7.436390399932861,6.576871871948242
1759864134079687000,10.58768701171875,-6.31829833984375,-7.582436561584473,6.766014099121094
1759864134099859200,10.607859130859374,-6.734889507293701,-7.268796443939209,6.624756336212158
1759864134109899500,10.6178994140625,-6.574477672576904,-7.0557122230529785,6.3518171310424805
1759864134119970300,10.62797021484375,-6.162675380706787,-6.888118267059326,6.114790916442871
1759864134130041000,10.638041015625,-5.829881191253662,-6.507440090179443,5.861005783081055
1759864134140081200,10.6480810546875,-5.621585369110107,-6.435614109039307,5.779603004455566
1759864134150152200,10.658152099609374,-5.360617637634277,-6.7277069091796875,5.987898349761963
1759864134160223000,10.668222900390624,-5.343858242034912,-7.1251444816589355,6.2632317543029785
1759864134170293800,10.678293701171874,-5.473145008087158,-7.242460250854492,6.651092529296875
1759864134180334000,10.688333984375,-6.028599739074707,-7.33583402633667,6.782773494720459
1759864134190404900,10.69840478515625,-6.825869083404541,-7.1251444816589355,6.6391215324401855
1759864134200506000,10.708506103515624,-7.206547260284424,-6.50025749206543,6.754043102264404
1759864134220647700,10.728647705078124,-7.647080421447754,-6.110002517700195,7.156269073486328
1759864134230749000,10.7387490234375,-7.848193168640137,-6.160281181335449,6.936002254486084
1759864134240789200,10.748789306640624,-8.271966934204102,-5.664681434631348,6.651092529296875
1759864134250860000,10.758860107421874,-8.549694061279297,-4.728548526763916,6.449979305267334
1759864134260961300,10.768961181640625,-8.59997272491455,-3.9264907836914062,6.074089527130127
1759864134301214200,10.809214111328124,-6.964732646942139,-5.2265424728393555,5.70777702331543
1759864134311285000,10.819284912109374,-6.258443355560303,-5.595249176025391,5.937620162963867
1759864134321325000,10.829324951171875,-5.770026206970215,-5.535394191741943,5.932831764221191
1759864134331396000,10.83939599609375,-5.20978307723999,-5.224148273468018,5.746084213256836
1759864134341497300,10.849497314453124,-4.802768707275391,-5.0014872550964355,5.4013190269470215
1759864134351568100,10.859568115234374,-4.307168960571289,-4.881777286529541,5.073313236236572
1759864134361639000,10.869638916015624,-3.9217023849487305,-4.908113479614258,4.953603267669678
1759864134371679200,10.87967919921875,-3.7445313930511475,-4.927267074584961,4.876988887786865
1759864134381750000,10.88975,-3.7205893993377686,-4.967968463897705,4.7620673179626465
1759864134411992800,10.919992919921874,-3.6511576175689697,-5.2049946784973145,4.869806289672852
1759864134422063600,10.930063720703124,-3.627215623855591,-4.687847137451172,4.836287498474121
1759864134442174700,10.9501748046875,-3.8355112075805664,-4.01268196105957,4.587290287017822
1759864134452276200,10.960276123046874,-4.165910720825195,-3.993528366088867,4.553771495819092
1759864134462347000,10.970346923828124,-4.503493309020996,-4.129997730255127,4.627991676330566
1759864134472417800,10.980417724609374,-4.982333660125732,-4.333505153656006,4.6255974769592285
1759864134502630100,11.010630126953124,-5.015852451324463,-4.8267107009887695,4.862623691558838
1759864134512701000,11.020700927734374,-4.568136692047119,-5.0876784324646,4.98472785949707
1759864134522771700,11.030771728515624,-4.223371982574463,-5.389348030090332,5.377377033233643
1759864134532873000,11.040873046875,-4.338293552398682,-5.616796970367432,5.808333396911621
1759864134542943700,11.05094384765625,-4.639962673187256,-5.726930618286133,6.507440090179443
1759864134553014500,11.0610146484375,-5.149928092956543,-5.664681434631348,6.952761650085449
1759864134563085300,11.071085205078125,-5.566518783569336,-5.774814605712891,7.3885064125061035
1759864134573125600,11.081125732421874,-5.918466567993164,-6.023811340332031,7.6566572189331055
1759864134613439500,11.121439453125,-6.900089263916016,-6.536170482635498,8.791508674621582
1759864134623510300,11.13151025390625,-7.359776020050049,-6.722918510437012,9.011775016784668
1759864134633581000,11.1415810546875,-7.711723804473877,-6.998251438140869,9.006986618041992
1759864134643682300,11.151682373046874,-7.766790390014648,-7.220912456512451,8.753201484680176
1759864134653753000,11.161753173828124,-7.754819393157959,-7.029376029968262,8.65743350982666
1759864134663854600,11.1718544921875,-7.757213592529297,-6.6846113204956055,8.631096839904785
1759864134673925400,11.18192529296875,-7.9176249504089355,-6.452373504638672,8.777143478393555
1759864134683996200,11.19199609375,-7.994239330291748,-6.864176273345947,8.576030731201172
1759864134714239000,11.222239013671874,-7.101202011108398,-5.772420406341553,6.658275127410889
1759864134724309800,11.232309814453124,-6.596025466918945,-5.583278179168701,5.925649166107178
1759864134734380500,11.242380615234374,-6.428431510925293,-5.810727596282959,5.406107425689697
1759864134744420900,11.2524208984375,-6.720524311065674,-6.143521785736084,5.427655220031738
1759864134754491600,11.26249169921875,-7.0557122230529785,-6.45476770401001,5.789179801940918
1759864134764593000,11.272593017578124,-7.1490864753723145,-6.900089263916016,5.9304375648498535
1759864134774694400,11.2826943359375,-7.240066051483154,-6.914454460144043,5.6910176277160645
1759864134784765200,11.29276513671875,-7.240066051483154,-6.914454460144043,5.6910176277160645
1759864134814947000,11.322947021484374,-7.223306655883789,-4.522646903991699,4.266467571258545
1759864134824987400,11.3329873046875,-6.761225700378418,-4.766855716705322,4.146757125854492
1759864134835027500,11.34302734375,-6.469132900238037,-5.303156852722168,4.390965938568115
1759864134845067800,11.35306787109375,-6.215347766876221,-5.700594425201416,4.697423934936523
1759864134855169300,11.363169189453124,-5.963956356048584,-5.57370138168335,4.766855716705322
1759864134865270500,11.3732705078125,-5.489904403686523,-5.104437828063965,4.78122091293335
1759864134875310800,11.383310791015624,-5.0685248374938965,-4.565742492675781,4.639962673187256
1759864134885412000,11.393412109375,-4.742913722991943,-4.175487995147705,4.491522312164307
1759864134905553700,11.4135537109375,-4.525041103363037,-3.758896589279175,4.541800498962402
1759864134915655000,11.423655029296874,-4.4532151222229,-3.845088005065918,4.6950297355651855
1759864134925787000,11.433786865234374,-4.460397720336914,-4.125209331512451,4.8267107009887695
1759864134935888100,11.44388818359375,-4.230554580688477,-4.6040496826171875,4.797980308532715
1759864134945928400,11.453928466796874,-4.084507942199707,-4.716577529907227,4.790797710418701
1759864134956029700,11.46402978515625,-4.065354347229004,-4.704606533050537,4.76924991607666
1759864134966100500,11.4741005859375,-4.151545524597168,-4.699818134307861,4.838681697845459
1759864134976140800,11.484140869140624,-4.331110954284668,-4.90571928024292,4.917690277099609
1759864134986242000,11.494241943359375,-4.424484729766846,-5.0254292488098145,4.927267074584961
1759864135016424000,11.524423828125,-4.656722068786621,-5.521028995513916,5.018246650695801
1759864135026495000,11.534494873046874,-4.836287498474121,-5.7556610107421875,4.967968463897705
1759864135036596200,11.54459619140625,-4.869806289672852,-5.858611583709717,4.881777286529541
1759864135046636500,11.554636474609374,-4.888959884643555,-5.822698593139648,4.929661273956299
1759864135056707300,11.564707275390624,-4.896142482757568,-5.858611583709717,4.948814868927002
1759864135066808600,11.57480859375,-4.841075897216797,-5.9974751472473145,4.999093055725098
1759864135076879400,11.58487939453125,-4.865017890930176,-6.0836663246154785,5.183446884155273
1759864135086858500,11.5948583984375,-4.917690277099609,-6.270414352416992,5.410895824432373
1759864135117132000,11.625132080078124,-5.2911858558654785,-6.871358871459961,5.942408561706543
1759864135147314000,11.65531396484375,-6.560112476348877,-7.682993412017822,6.828263282775879
1759864135167486000,11.67548583984375,-7.457938194274902,-7.053318023681641,6.866570472717285
1759864135177557000,11.685556884765624,-7.771578788757324,-6.787561893463135,6.540958881378174
1759864135187627800,11.695627685546874,-7.264008045196533,-6.402095317840576,6.303933143615723
1759864135197729000,11.70572900390625,-6.952761650085449,-6.107608318328857,6.560112476348877
1759864135207738600,11.715738525390625,-6.586448669433594,-6.270414352416992,7.01979923248291
1759864135227849700,11.735849609375,-7.2783732414245605,-7.592013359069824,7.7213006019592285
1759864135237951200,11.745951171875,-7.797914981842041,-7.096413612365723,7.860164165496826
1759864135248022000,11.75602197265625,-8.20492935180664,-6.6630635261535645,7.740454196929932
1759864135258062300,11.766062255859374,-8.257601737976074,-6.53377628326416,7.393294811248779
1759864135268133000,11.776133056640624,-7.68538761138916,-6.117185115814209,6.773196697235107
1759864135278234400,11.786234375,-7.68538761138916,-6.117185115814209,6.773196697235107
1759864135288244200,11.796244140625,-7.000645637512207,-5.647922039031982,6.196194171905518
1759864135298345500,11.806345458984374,-6.593631267547607,-5.011064052581787,5.683835029602051
1759864135308446700,11.81644677734375,-6.689399719238281,-4.874594688415527,5.789179801940918
1759864135318517500,11.826517578125,-6.828263282775879,-5.123591423034668,6.172252178192139
1759864135328588300,11.83658837890625,-7.053318023681641,-5.4659624099731445,6.3949127197265625
1759864135338689800,11.846689697265624,-6.9024834632873535,-5.293580055236816,6.289567947387695
1759864135348760600,11.856760498046874,-6.63433313369751,-5.147533416748047,5.925649166107178
1759864135358861800,11.86686181640625,-6.143521785736084,-4.884171485900879,5.509057998657227
1759864135368902100,11.876902099609374,-5.638344764709473,-4.460397720336914,5.293580055236816
1759864135379003400,11.88700341796875,-5.5329999923706055,-4.2951979637146,5.284003257751465
1759864135389043700,11.897043701171874,-5.4875102043151855,-4.414907932281494,5.382165431976318
1759864135399145000,11.90714501953125,-5.39174222946167,-4.546588897705078,5.367800235748291
1759864135409185300,11.917185302734374,-5.109226226806641,-4.639962673187256,5.279214859008789
1759864135429357300,11.937357421875,-4.393360137939453,-4.347870349884033,5.0876784324646
1759864135449468400,11.957468505859374,-3.8762125968933105,-4.424484729766846,5.214571475982666
1759864135459570000,11.96756982421875,-3.6727054119110107,-4.496310710906982,5.243301868438721
1759864135469671200,11.977671142578124,-3.6367924213409424,-4.611232280731201,5.195417881011963
1759864135479742000,11.987741943359374,-3.5673606395721436,-4.659116744995117,5.080495834350586
1759864135489812700,11.997812744140624,-3.8953661918640137,-4.776432514190674,5.018246650695801
1759864135499883500,12.007883544921874,-4.036623954772949,-5.011064052581787,4.99669885635376
1759864135509984800,12.01798486328125,-4.220977783203125,-5.061342239379883,4.98472785949707
1759864135520055600,12.0280556640625,-4.462791919708252,-5.1331682205200195,4.982333660125732
1759864135530126300,12.038126220703125,-4.790797710418701,-5.063736438751221,4.8937482833862305
1759864135540197000,12.048197021484375,-5.236119270324707,-4.982333660125732,5.006275653839111
1759864135550268200,12.05826806640625,-5.499481201171875,-5.061342239379883,5.212177276611328
1759864135560339000,12.0683388671875,-5.564124584197998,-5.3342814445495605,5.48272180557251
1759864135570409700,12.07840966796875,-5.702988624572754,-5.525817394256592,5.70777702331543
1759864135580480500,12.08848046875,-5.669469833374023,-5.592854976654053,5.928043365478516
1759864135590520800,12.098520751953124,-5.463568210601807,-5.449203014373779,5.978321552276611
1759864135600622000,12.1086220703125,-5.2480902671813965,-5.355829238891602,6.069301128387451
1759864135610662400,12.118662353515624,-5.015852451324463,-5.403713226318359,6.0597243309021
1759864135630834400,12.13883447265625,-4.865017890930176,-5.523423194885254,6.308721542358398
1759864135650915000,12.1589150390625,-4.977545261383057,-5.60722017288208,6.873753070831299
1759864135661016300,12.169016357421874,-5.003881454467773,-5.863399982452393,7.003039836883545
1759864135671087000,12.179087158203124,-4.888959884643555,-6.2416839599609375,7.074865818023682
1759864135681188400,12.189188232421875,-4.946420669555664,-6.507440090179443,7.110779285430908
1759864135691259100,12.199259033203125,-5.17626428604126,-6.5696892738342285,7.240066051483154
1759864135701330200,12.209330078125,-5.480327606201172,-6.50025749206543,7.465120792388916
1759864135711431400,12.219431396484374,-5.633556365966797,-6.457161903381348,7.580042362213135
1759864135731573000,12.239572998046874,-6.270414352416992,-7.103596210479736,7.972691535949707
1759864135741643800,12.249643798828124,-6.603208065032959,-7.450755596160889,8.183381080627441
1759864135751714600,12.259714599609374,-7.079654216766357,-7.905653953552246,8.394071578979492
1759864135761815800,12.26981591796875,-7.625532627105713,-8.13789176940918,8.465897560119629
1759864135771886600,12.279886474609375,-8.180987358093262,-7.8960771560668945,8.178592681884766
1759864135781988000,12.289988037109374,-8.180987358093262,-7.8960771560668945,8.178592681884766
1759864135792059000,12.300058837890624,-8.482656478881836,-7.163451671600342,7.527369976043701
1759864135802129700,12.310129638671874,-8.135497093200684,-6.876147270202637,6.833051681518555
1759864135812231000,12.32023095703125,-7.489062786102295,-6.835445880889893,5.983109951019287
1759864135842443300,12.350443359375,-7.173028469085693,-7.8314337730407715,5.264849662780762
1759864135862584800,12.370584716796875,-7.524975776672363,-6.497863292694092,5.564124584197998
1759864135872655600,12.380655517578125,-7.072471618652344,-5.947196960449219,5.231330871582031
1759864135882726700,12.3907265625,-6.572083473205566,-6.01423454284668,4.702212333679199
1759864135892797400,12.40079736328125,-5.949591159820557,-5.937620162963867,4.180276393890381
1759864135902898700,12.410898681640624,-5.501875400543213,-5.475539207458496,3.936067581176758
1759864135912969500,12.420969482421874,-5.236119270324707,-5.044582843780518,3.9624037742614746
1759864135923040300,12.431040283203124,-5.073313236236572,-5.023035049438477,4.163516521453857
1759864135943212300,12.45121240234375,-4.704606533050537,-5.588066577911377,4.37420654296875
1759864135963354000,12.47135400390625,-4.802768707275391,-5.032611846923828,4.520252704620361
1759864135973394200,12.481394287109374,-4.750096321105957,-4.671087741851807,4.651933670043945
1759864135983465000,12.49146484375,-4.60165548324585,-4.529829502105713,4.584896087646484
1759864135993535700,12.50153564453125,-4.481945514678955,-4.548983097076416,4.522646903991699
1759864136003637200,12.51163720703125,-4.326322555541992,-4.716577529907227,4.49870491027832
1759864136013646800,12.521646728515625,-4.247313976287842,-4.891354084014893,4.537012100219727
1759864136023717600,12.531717529296875,-4.213795185089111,-5.018246650695801,4.747702121734619
1759864136064001000,12.5720009765625,-4.46518611907959,-5.212177276611328,5.4013190269470215
1759864136074071800,12.58207177734375,-4.484339714050293,-5.22175407409668,5.403713226318359
1759864136084112100,12.592112060546874,-4.410119533538818,-5.0900726318359375,5.439626216888428
1759864136094213400,12.60221337890625,-4.558559894561768,-5.260061264038086,5.57370138168335
1759864136104314600,12.612314697265624,-4.666299343109131,-5.595249176025391,5.750872611999512
1759864136114385400,12.622385498046874,-4.644751071929932,-6.004657745361328,5.901707172393799
1759864136124456200,12.632456298828124,-4.623203277587891,-6.1267619132995605,5.987898349761963
1759864136154607600,12.662607666015624,-5.085284233093262,-6.268020153045654,5.796362400054932
1759864136164678400,12.672678466796874,-5.039794445037842,-6.495469093322754,5.961562156677246
1759864136174749200,12.682749267578124,-4.989516258239746,-6.818686485290527,6.066906929016113
1759864136184789500,12.69278955078125,-4.934449672698975,-7.003039836883545,6.229712963104248
1759864136194860300,12.7028603515625,-5.056553840637207,-6.943184852600098,6.461950302124023
1759864136204931000,12.71293115234375,-5.295974254608154,-7.082048416137695,6.660669326782227
1759864136215001900,12.723001953125,-5.413290023803711,-7.479485988616943,6.8378400802612305
1759864136225072600,12.73307275390625,-5.631162166595459,-7.943961143493652,7.091625213623047
1759864136235143400,12.743143310546875,-6.057330131530762,-8.01339340209961,7.254431247711182
1759864136265417000,12.7734169921875,-7.4555439949035645,-6.933608055114746,7.117961883544922
1759864136275457300,12.783457275390624,-7.527369976043701,-6.866570472717285,7.060500621795654
1759864136285558500,12.79355859375,-7.527369976043701,-6.866570472717285,7.060500621795654
1759864136295598800,12.803598876953124,-7.46033239364624,-7.223306655883789,7.105990409851074
1759864136305669600,12.813669677734374,-7.496245384216309,-7.592013359069824,7.091625213623047
1759864136315740400,12.823740478515624,-8.051700592041016,-7.675810813903809,7.070077419281006
1759864136325811200,12.833811279296874,-8.573636054992676,-7.383718013763428,7.132327079772949
1759864136335912700,12.84391259765625,-8.722076416015625,-6.967126846313477,6.914454460144043
1759864136346014000,12.854013916015624,-8.686163902282715,-6.370970726013184,6.469132900238037
1759864136376287200,12.884287353515624,-7.4100542068481445,-5.365406036376953,5.394136428833008
1759864136386388700,12.894388671875,-6.8809356689453125,-5.461174011230469,5.631162166595459
1759864136396459500,12.90445947265625,-6.502651691436768,-5.236119270324707,5.822698593139648
1759864136406530300,12.9145302734375,-6.186617374420166,-4.726154327392578,6.004657745361328
1759864136416631600,12.924631591796874,-5.95677375793457,-4.144362926483154,6.04775333404541
1759864136436773000,12.944773193359374,-5.631162166595459,-4.094084739685059,5.87776517868042
1759864136446874400,12.954874267578125,-5.2672438621521,-4.20421838760376,5.626373767852783
1759864136477087000,12.9850869140625,-4.5394062995910645,-4.041412353515625,4.855441093444824
1759864136497289500,13.00528955078125,-4.436455726623535,-3.801992416381836,4.4292731285095215
1759864136507360300,13.0153603515625,-4.680664539337158,-3.84269380569458,4.333505153656006
1759864136517461800,13.025461669921874,-4.850652694702148,-3.9193081855773926,4.436455726623535
1759864136527532500,13.035532470703124,-4.881777286529541,-4.065354347229004,4.577713489532471
1759864136537603300,13.045603271484374,-4.757278919219971,-4.2544965744018555,4.541800498962402
1759864136547704600,13.05570458984375,-4.541800498962402,-4.5154643058776855,4.46518611907959
1759864136557805800,13.065805908203124,-4.2975921630859375,-4.651933670043945,4.355052947998047
1759864136608160000,13.116159912109374,-4.3406877517700195,-4.874594688415527,4.7405195236206055
1759864136628332000,13.13633203125,-4.934449672698975,-4.932055473327637,5.331887245178223
1759864136638372400,13.146372314453124,-4.934449672698975,-4.922478675842285,5.5114521980285645
1759864136648382000,13.1563818359375,-4.709394931793213,-4.754884719848633,5.635950565338135
1759864136688665300,13.196665283203124,-4.953603267669678,-6.691793918609619,6.768408298492432
1759864136698766600,13.2067666015625,-5.374982833862305,-6.873753070831299,7.240066051483154
1759864136708867800,13.216867919921874,-5.612008571624756,-6.617573261260986,7.407660007476807
1759864136718969300,13.22696923828125,-5.96874475479126,-6.248866558074951,7.615955829620361
1759864136729009400,13.237009521484374,-6.308721542358398,-6.143521785736084,7.769184589385986
1759864136739111000,13.24711083984375,-6.4164605140686035,-6.536170482635498,7.785943984985352
1759864136749212200,13.257212158203124,-6.536170482635498,-7.003039836883545,7.718906402587891
1759864136759252500,13.26725244140625,-6.646304130554199,-7.47230339050293,7.592013359069824
1759864136799566000,13.307566162109374,-7.0772600173950195,-7.082048416137695,7.249642848968506
1759864136809576000,13.317575927734374,-7.132327079772949,-6.801927089691162,7.0126166343688965
1759864136819707600,13.327707763671874,-6.8593878746032715,-6.517016887664795,6.619967937469482
1759864136829748000,13.337748046875,-6.710947513580322,-6.184223175048828,6.517016887664795
1759864136839818800,13.34781884765625,-6.660669326782227,-6.4595561027526855,6.809109687805176
1759864136849889500,13.3578896484375,-6.485892295837402,-7.139509677886963,7.141903877258301
1759864136859991000,13.367990966796874,-6.490680694580078,-7.395689010620117,7.266402244567871
1759864136870061800,13.378061767578124,-6.481103897094727,-6.995857238769531,7.230489253997803
1759864136890233900,13.39823388671875,-6.069301128387451,-5.791574001312256,6.179434776306152
1759864136900304600,13.4083046875,-6.098031520843506,-5.140350818634033,5.48272180557251
1759864136910406000,13.418406005859374,-6.0597243309021,-5.003881454467773,5.243301868438721
1759864136920476700,13.4284765625,-6.028599739074707,-5.760449409484863,5.353435039520264
1759864136930547700,13.438547607421874,-5.966350555419922,-6.643909931182861,5.5760955810546875
1759864136940649000,13.44864892578125,-6.1770405769348145,-6.947973251342773,5.724536418914795
1759864136950750200,13.458750244140624,-6.521805286407471,-7.0557122230529785,5.7341132164001465
1759864136960851500,13.4688515625,-6.909666061401367,-6.615179061889648,5.48272180557251
1759864136970891800,13.478891845703124,-7.122750282287598,-5.7556610107421875,5.135562419891357
1759864136991094500,13.499094482421874,-6.9024834632873535,-5.600037574768066,4.477157115936279
1759864137001165300,13.509165283203124,-6.610390663146973,-5.9735331535339355,4.491522312164307
1759864137011236000,13.519236083984374,-6.27280855178833,-6.117185115814209,4.618414878845215
1759864137021337300,13.52933740234375,-6.066906929016113,-6.165069580078125,4.888959884643555
1759864137031377700,13.539377685546874,-6.033388137817383,-5.966350555419922,4.953603267669678
1759864137041479000,13.54947900390625,-5.932831764221191,-5.70777702331543,4.982333660125732
1759864137051580400,13.559580322265624,-5.588066577911377,-5.5760955810546875,4.910507678985596
1759864137061651200,13.569651123046874,-5.166687488555908,-5.537788391113281,4.821922302246094
1759864137071691300,13.579691162109375,-4.884171485900879,-5.461174011230469,4.668693542480469
1759864137091863600,13.599863525390624,-4.525041103363037,-5.0014872550964355,4.2951979637146
1759864137101964800,13.60996484375,-4.458003520965576,-4.661510944366455,4.211400985717773
1759864137112035600,13.62003564453125,-4.446032524108887,-4.548983097076416,4.127603530883789
1759864137122106400,13.6301064453125,-4.426878929138184,-4.616020679473877,4.220977783203125
1759864137132207900,13.640207763671874,-4.371812343597412,-4.853046894073486,4.1874589920043945
1759864137142248000,13.650248046875,-4.256890773773193,-5.109226226806641,4.290409564971924
1759864137152318700,13.660318603515625,-4.134786128997803,-5.092466831207275,4.3406877517700195
1759864137162420200,13.670420166015624,-4.05817174911499,-5.078101634979248,4.529829502105713
1759864137172491000,13.680490966796874,-3.9169139862060547,-5.106832027435303,4.69024133682251
1759864137192563000,13.70056298828125,-4.168305397033691,-5.4659624099731445,5.137956619262695
1759864137202634000,13.710634033203124,-4.441244125366211,-5.499481201171875,5.439626216888428
1759864137212674000,13.720674072265625,-4.570530891418457,-5.458779811859131,5.66228723526001
1759864137222775600,13.730775634765624,-4.721365928649902,-5.477933406829834,5.837063789367676
1759864137232846300,13.740846435546874,-4.817133903503418,-5.525817394256592,6.076483726501465
1759864137242947600,13.750947509765625,-4.857835292816162,-5.774814605712891,6.258443355560303
1759864137253018400,13.761018310546875,-4.886565685272217,-6.045359134674072,6.270414352416992
1759864137263058700,13.77105859375,-5.073313236236572,-6.13633918762207,6.291962146759033
1759864137273129500,13.78112939453125,-5.166687488555908,-6.1530985832214355,6.40927791595459
1759864137293301500,13.801301513671875,-5.494692802429199,-6.828263282775879,6.7277069091796875
1759864137313443000,13.821443115234375,-5.700594425201416,-7.354987621307373,6.892906665802002
1759864137323514000,13.83151416015625,-6.054935932159424,-7.73087739944458,7.194576263427734
1759864137333554200,13.84155419921875,-6.48828649520874,-7.675810813903809,7.354987621307373
1759864137343625000,13.851625,-6.7708024978637695,-7.129932880401611,7.206547260284424
1759864137353696000,13.861696044921874,-6.696582317352295,-6.562506675720215,7.134721279144287
1759864137363766800,13.871766845703124,-6.562506675720215,-6.268020153045654,7.003039836883545
1759864137373806800,13.881806884765625,-6.368576526641846,-6.449979305267334,6.957550048828125
1759864137393979100,13.901979248046874,-6.835445880889893,-7.462726593017578,7.424419403076172
1759864137404080400,13.912080322265625,-7.5417351722717285,-8.01339340209961,7.508216381072998
1759864137414120700,13.92212060546875,-8.607154846191406,-7.843404769897461,7.592013359069824
1759864137424191500,13.93219140625,-9.181763648986816,-7.072471618652344,7.110779285430908
1759864137434292700,13.942292724609375,-9.512163162231445,-6.088454723358154,6.476315498352051
1759864137444333000,13.9523330078125,-9.17936897277832,-5.406107425689697,5.928043365478516
1759864137454373400,13.962373291015625,-8.887276649475098,-5.367800235748291,5.676652431488037
1759864137464444200,13.972444091796875,-8.269572257995605,-5.566518783569336,5.518634796142578
1759864137474515000,13.982514892578125,-8.279149055480957,-5.585672378540039,5.415684223175049
1759864137504727300,14.012727294921875,-8.219294548034668,-3.823540210723877,5.327098846435547
1759864137514828800,14.022828857421874,-7.496245384216309,-3.7181951999664307,5.193023681640625
1759864137534939600,14.042939697265625,-6.143521785736084,-3.7684733867645264,5.063736438751221
1759864137545041200,14.053041259765624,-5.743690013885498,-4.177882194519043,5.185841083526611
1759864137555112000,14.06311181640625,-5.559336185455322,-4.627991676330566,5.324704647064209
1759864137565182700,14.0731826171875,-5.25527286529541,-4.845864295959473,5.317522048950195
1759864137595425500,14.103425537109375,-4.793191909790039,-4.3406877517700195,4.793191909790039
1759864137615536600,14.12353662109375,-4.402936935424805,-4.726154327392578,4.4723687171936035
1759864137625607400,14.133607421875,-4.288015365600586,-5.109226226806641,4.462791919708252
1759864137635709000,14.143708984375,-4.264073371887207,-5.446808815002441,4.496310710906982
1759864137645779700,14.15377978515625,-4.299986362457275,-5.542576789855957,4.683058738708496
1759864137655881000,14.163880859375,-4.321534156799316,-5.415684223175049,4.920084476470947
1759864137665951700,14.17395166015625,-4.216189384460449,-5.212177276611328,4.98472785949707
1759864137676053000,14.184052978515625,-4.3622355461120605,-5.035006046295166,4.867412090301514
1759864137706296000,14.214296142578124,-4.651933670043945,-4.448426723480225,4.747702121734619
1759864137726437600,14.234437744140624,-4.888959884643555,-4.812345504760742,5.020640850067139
1759864137736478000,14.24447802734375,-5.0469770431518555,-5.044582843780518,5.355829238891602
1759864137746548700,14.254548828125,-5.142745018005371,-5.190629482269287,5.513846397399902
1759864137766720800,14.274720703125,-5.231330871582031,-4.910507678985596,5.889736175537109
1759864137776791600,14.28479150390625,-5.293580055236816,-4.941632270812988,6.009446144104004
1759864137806973400,14.314973388671875,-5.303156852722168,-5.202600479125977,6.531382083892822
1759864137817044200,14.325044189453125,-5.492298603057861,-5.588066577911377,6.861782073974609
1759864137827145500,14.3351455078125,-5.731719017028809,-6.0836663246154785,7.2352776527404785
1759864137837185800,14.345185791015625,-5.961562156677246,-6.514622688293457,7.395689010620117
1759864137847287300,14.355287353515624,-6.0597243309021,-6.801927089691162,7.467514991760254
1759864137857388500,14.365388427734375,-6.191405773162842,-6.876147270202637,7.589619159698486
1759864137867459300,14.375459228515625,-6.203376770019531,-6.708553314208984,7.582436561584473
1759864137877530000,14.385530029296875,-6.196194171905518,-6.4595561027526855,7.347805023193359
1759864137887601000,14.395600830078125,-6.289567947387695,-6.169857978820801,7.184999465942383
1759864137917843700,14.42584375,-6.643909931182861,-7.105990409851074,7.5417351722717285
1759864137927914800,14.435914794921874,-7.017405033111572,-7.237671852111816,8.111555099487305
1759864137938016000,14.44601611328125,-7.6111674308776855,-7.357381820678711,8.506598472595215
1759864137948117200,14.4561171875,-8.157045364379883,-7.29034423828125,8.133103370666504
1759864137958188000,14.46618798828125,-8.370129585266113,-6.481103897094727,7.252037048339844
1759864137968258800,14.4762587890625,-8.202534675598145,-5.51624059677124,6.19379997253418
1759864137978329600,14.48632958984375,-7.709329605102539,-4.98472785949707,5.341464042663574
1759864137988431000,14.49643115234375,-7.070077419281006,-5.494692802429199,4.644751071929932
1759864138018674000,14.526673828125,-6.528987884521484,-6.89530086517334,4.93923807144165
1759864138038846000,14.546845947265625,-6.5696892738342285,-5.250484466552734,4.790797710418701
1759864138048916700,14.556916748046875,-6.538564682006836,-4.8602294921875,4.651933670043945
1759864138058957000,14.56695703125,-6.4380083084106445,-4.812345504760742,4.857835292816162
1759864138069058300,14.577058349609375,-6.155492782592773,-5.166687488555908,5.185841083526611
1759864138079129300,14.58712939453125,-6.13633918762207,-5.944802761077881,5.47075080871582
1759864138089169400,14.59716943359375,-6.100425720214844,-6.426037311553955,5.635950565338135
1759864138119382000,14.627382080078124,-6.5050458908081055,-5.693411827087402,5.193023681640625
1759864138139554000,14.647553955078125,-6.354211330413818,-5.147533416748047,5.17626428604126
1759864138149624800,14.657624755859375,-6.215347766876221,-5.070919036865234,5.17626428604126
1759864138159695600,14.667695556640625,-5.920860767364502,-5.0876784324646,5.106832027435303
1759864138169705500,14.67770556640625,-5.525817394256592,-4.862623691558838,4.876988887786865
1759864138179806700,14.687806640625,-5.166687488555908,-4.671087741851807,4.824316501617432
1759864138189877500,14.69787744140625,-4.776432514190674,-4.639962673187256,4.8602294921875
1759864138199917800,14.707917724609375,-4.496310710906982,-4.541800498962402,4.865017890930176
1759864138230160600,14.73816064453125,-4.036623954772949,-4.49870491027832,4.953603267669678
1759864138240231400,14.7482314453125,-3.9025487899780273,-4.577713489532471,4.8267107009887695
1759864138260373200,14.768373291015624,-3.8307228088378906,-4.802768707275391,4.778826713562012
1759864138270413300,14.778413330078125,-3.600879430770874,-5.008669853210449,4.745307922363281
1759864138280484000,14.788484130859375,-3.531447410583496,-5.231330871582031,4.898536682128906
1759864138290524400,14.7985244140625,-3.6727054119110107,-5.360617637634277,5.1810526847839355
1759864138300626000,14.8086259765625,-3.9408559799194336,-5.540182590484619,5.583278179168701
1759864138320706300,14.828706298828125,-4.383783340454102,-6.01423454284668,6.038176536560059
1759864138330746600,14.83874658203125,-4.489128112792969,-6.337451934814453,6.521805286407471
1759864138340847900,14.848847900390625,-5.1116204261779785,-6.540958881378174,6.931213855743408
1759864138350918700,14.858918701171875,-5.521028995513916,-6.5912370681762695,7.287950038909912
1759864138361020200,14.869020263671874,-5.810727596282959,-6.648698329925537,7.441178798675537
1759864138371091000,14.879091064453124,-6.167463779449463,-6.785167694091797,7.438784599304199
1759864138381192200,14.889192138671875,-6.308721542358398,-6.98628044128418,7.402871608734131
1759864138391263000,14.899262939453125,-6.490680694580078,-6.780379295349121,7.220912456512451
1759864138401333800,14.909333740234375,-6.610390663146973,-6.31829833984375,6.873753070831299
1759864138441617000,14.949616943359375,-5.760449409484863,-6.8593878746032715,7.223306655883789
1759864138471829500,14.97982958984375,-5.140350818634033,-6.445190906524658,7.0341644287109375
1759864138481930800,14.9899306640625,-5.25527286529541,-6.3063273429870605,7.115567684173584
1759864138492032000,15.000031982421875,-5.631162166595459,-6.184223175048828,7.223306655883789
1759864138502102800,15.010102783203125,-5.87776517868042,-5.858611583709717,7.390900611877441
1759864138512204300,15.020204345703124,-6.076483726501465,-6.00226354598999,7.249642848968506
1759864138522275000,15.030275146484374,-6.14831018447876,-6.593631267547607,7.053318023681641
1759864138532345900,15.040345947265624,-6.387730121612549,-6.835445880889893,6.761225700378418
1759864138542447000,15.050447021484375,-6.71334171295166,-6.8043212890625,6.564900875091553
1759864138552518000,15.060517822265625,-6.885724067687988,-6.490680694580078,6.339846134185791
1759864138562619100,15.070619140625,-6.8378400802612305,-6.268020153045654,6.035782337188721
1759864138572720600,15.080720703125,-6.825869083404541,-6.121973514556885,5.726930618286133
1759864138582791400,15.09079150390625,-6.734889507293701,-5.738901615142822,5.5545477867126465
1759864138592831700,15.100831787109374,-6.648698329925537,-5.245696067810059,5.34625244140625
1759864138602933000,15.11093310546875,-6.557718276977539,-4.651933670043945,5.410895824432373
1759864138613034200,15.1210341796875,-6.366182327270508,-4.120420932769775,5.547365188598633
1759864138633175800,15.14117578125,-6.129156112670898,-4.606443881988525,6.169857978820801
1759864138643277000,15.151277099609375,-5.999869346618652,-5.037400245666504,6.303933143615723
1759864138653317400,15.1613173828125,-5.841852188110352,-5.0014872550964355,6.200982570648193
1759864138663388200,15.17138818359375,-5.568912982940674,-4.371812343597412,6.004657745361328
1759864138673489700,15.18148974609375,-5.353435039520264,-3.936067581176758,5.702988624572754
1759864138683560400,15.191560546875,-5.173870086669922,-3.8714241981506348,5.588066577911377
1759864138693631200,15.20163134765625,-4.728548526763916,-3.756502389907837,5.446808815002441
1759864138703732500,15.211732421875,-4.37420654296875,-3.8762125968933105,5.102043628692627
1759864138713803300,15.22180322265625,-4.129997730255127,-4.067748546600342,4.912901878356934
1759864138723874000,15.2318740234375,-4.015076160430908,-4.242525577545166,4.960785865783691
1759864138754086400,15.26208642578125,-3.4308910369873047,-4.54419469833374,5.013458251953125
1759864138764188000,15.27218798828125,-3.421314239501953,-4.288015365600586,4.786009311676025
1759864138774258700,15.2822587890625,-3.4572272300720215,-4.177882194519043,4.683058738708496
1759864138784329500,15.29232958984375,-3.380612850189209,-4.141968727111816,4.596867084503174
1759864138794430700,15.3024306640625,-3.378218650817871,-4.060565948486328,4.58968448638916
1759864138814541800,15.322541748046875,-3.5625722408294678,-4.290409564971924,4.577713489532471
1759864138824643000,15.33264306640625,-3.5625722408294678,-4.290409564971924,4.577713489532471
1759864138834683400,15.342683349609375,-3.670311212539673,-4.220977783203125,4.714183330535889
1759864138844723700,15.3527236328125,-3.6535518169403076,-4.331110954284668,4.953603267669678
1759864138854764000,15.362763916015625,-3.5889084339141846,-4.225766181945801,5.054159641265869
1759864138864834800,15.372834716796875,-3.5482068061828613,-4.1180267333984375,5.216965675354004
1759864138874905600,15.382905517578125,-3.507505416870117,-4.185064792633057,5.559336185455322
1759864138884976400,15.392976318359375,-3.490746021270752,-4.299986362457275,5.829881191253662
1759864138895016700,15.4030166015625,-3.773261785507202,-4.51067590713501,6.347028732299805
1759864138905087500,15.41308740234375,-4.1180267333984375,-4.989516258239746,6.766014099121094
1759864138915188700,15.423188720703125,-4.395754337310791,-5.583278179168701,7.144298076629639
1759864138945431800,15.453431884765624,-5.118803024291992,-5.403713226318359,7.627926826477051
1759864138955533000,15.463532958984375,-5.104437828063965,-5.0254292488098145,7.673416614532471
1759864138965603800,15.473603759765625,-4.999093055725098,-5.20978307723999,7.4986395835876465
1759864138975644200,15.48364404296875,-4.869806289672852,-5.652710437774658,7.264008045196533
1759864138985745400,15.493745361328125,-4.764461517333984,-5.8873419761657715,7.333439826965332
1759864138995816200,15.503816162109375,-4.683058738708496,-5.858611583709717,7.474697589874268
1759864139005856500,15.5138564453125,-4.627991676330566,-5.899312973022461,7.625532627105713
1759864139015957800,15.523957763671875,-4.627991676330566,-5.858611583709717,7.661445617675781
1759864139066342400,15.57434228515625,-4.125209331512451,-5.51624059677124,7.309497833251953
1759864139086453500,15.59445361328125,-4.079719543457031,-6.114790916442871,7.326257228851318
1759864139096493800,15.604493896484374,-4.4508209228515625,-7.113173484802246,8.341399192810059
1759864139106534000,15.614533935546875,-5.207388877868652,-8.918401718139648,10.18493366241455
1759864139116605000,15.62460498046875,-8.913613319396973,-11.188104629516602,10.922348022460938
1759864139126645000,15.63464501953125,-9.035717010498047,-10.110713958740234,10.709263801574707
1759864139166989300,15.6749892578125,-7.141903877258301,-6.550535678863525,4.201824188232422
1759864139177060000,15.68506005859375,-4.99669885635376,-9.205705642700195,4.520252704620361
1759864139187131000,15.695130859375,-6.426037311553955,-13.103466033935547,5.420472621917725
1759864139197232000,15.705232177734375,-6.687005519866943,-13.105859756469727,6.967126846313477
1759864139207333600,15.715333740234374,-7.759607791900635,-9.80904483795166,6.84981107711792
1759864139217374000,15.7253740234375,-8.259995460510254,-6.449979305267334,6.339846134185791
1759864139247586300,15.75558642578125,-5.772420406341553,-6.320692539215088,6.3949127197265625
1759864139257657000,15.765656982421875,-5.367800235748291,-7.309497833251953,7.177816867828369
1759864139267758300,15.77575830078125,-5.104437828063965,-8.2312650680542,7.2568254470825195
1759864139277859600,15.785859619140625,-4.881777286529541,-8.559270858764648,6.617573261260986
1759864139287930600,15.7959306640625,-4.9799394607543945,-7.970297336578369,5.9304375648498535
1759864139298001400,15.80600146484375,-5.154716491699219,-6.739677906036377,5.288791656494141
1759864139308072200,15.816072265625,-5.523423194885254,-5.382165431976318,5.003881454467773
1759864139318143000,15.82614306640625,-5.523423194885254,-5.382165431976318,5.003881454467773
1759864139328213800,15.8362138671875,-5.434837818145752,-4.364629745483398,5.0900726318359375
1759864139358426000,15.866426025390625,-4.551377296447754,-4.714183330535889,5.17626428604126
1759864139368497000,15.876496826171875,-4.242525577545166,-5.066130638122559,5.207388877868652
1759864139378567700,15.886567626953125,-3.97916316986084,-5.006275653839111,5.317522048950195
1759864139388638500,15.896638427734375,-3.7876269817352295,-4.774038314819336,5.418078422546387
1759864139408749600,15.91674951171875,-3.8115692138671875,-4.548983097076416,5.468356609344482
1759864139418850800,15.926850830078125,-3.6511576175689697,-4.395754337310791,5.396530628204346
1759864139428921600,15.936921630859375,-3.4117374420166016,-4.352658748626709,5.293580055236816
1759864139469174300,15.97717431640625,-4.027047157287598,-5.5329999923706055,5.655104637145996
1759864139479245300,15.987245361328124,-4.072536945343018,-6.138733386993408,5.810727596282959
1759864139489346600,15.9973466796875,-4.216189384460449,-6.67982292175293,6.114790916442871
1759864139499447800,16.00744775390625,-4.491522312164307,-6.873753070831299,6.45476770401001
1759864139509488000,16.017488037109374,-4.76924991607666,-7.0557122230529785,6.63433313369751
1759864139529629700,16.037629638671874,-6.277596950531006,-6.801927089691162,6.885724067687988
1759864139539731000,16.04773095703125,-6.754043102264404,-6.586448669433594,6.873753070831299
1759864139559872500,16.06787255859375,-6.179434776306152,-6.5912370681762695,6.57926607131958
1759864139569974000,16.07797412109375,-5.5114521980285645,-6.560112476348877,6.301538944244385
1759864139580044800,16.088044921875,-5.430049419403076,-6.3973069190979,6.179434776306152
1759864139590146000,16.09814599609375,-6.009446144104004,-6.799532890319824,6.3949127197265625
1759864139600216800,16.108216796875,-6.629544734954834,-7.872135162353516,6.84981107711792
1759864139610257200,16.118257080078124,-6.71334171295166,-8.377311706542969,7.036558628082275
1759864139630398700,16.138398681640624,-7.934384346008301,-6.8162922859191895,7.0988078117370605
1759864139640469500,16.148469482421874,-7.469909191131592,-5.69580602645874,6.45476770401001
1759864139680752600,16.188752685546874,-7.666234016418457,-5.851428985595703,6.370970726013184
1759864139690793000,16.19879296875,-7.5632829666137695,-5.825092792510986,6.18182897567749
1759864139700863700,16.20886376953125,-7.4316020011901855,-5.698200225830078,6.026205539703369
1759864139710934500,16.2189345703125,-7.086836814880371,-5.604825973510742,5.815515995025635
1759864139721005600,16.229005615234374,-6.806715488433838,-5.315127849578857,5.628767967224121
1759864139731045600,16.239045654296874,-6.907271862030029,-4.845864295959473,5.7772088050842285
1759864139741147100,16.249147216796874,-6.842628479003906,-4.575319290161133,5.9735331535339355
1759864139751218000,16.259218017578124,-6.7061591148376465,-4.618414878845215,5.954379558563232
1759864139771359500,16.279359375,-5.851428985595703,-4.431667327880859,5.501875400543213
1759864139781430300,16.28943017578125,-5.5114521980285645,-4.359841346740723,5.47075080871582
1759864139791470600,16.299470703125,-5.142745018005371,-4.400542736053467,5.461174011230469
1759864139801571800,16.30957177734375,-4.663905143737793,-4.393360137939453,5.43723201751709
1759864139811581700,16.319581787109374,-4.663905143737793,-4.393360137939453,5.43723201751709
1759864139821683000,16.329682861328124,-4.503493309020996,-4.618414878845215,5.492298603057861
1759864139831753700,16.339753662109374,-4.101267337799072,-4.869806289672852,5.413290023803711
1759864139841824500,16.349824462890624,-4.050989151000977,-4.9152960777282715,5.341464042663574
1759864139851834400,16.35983447265625,-3.9001545906066895,-4.616020679473877,5.0685248374938965
1759864139861935600,16.369935546875,-3.8714241981506348,-4.242525577545166,4.888959884643555
1759864139882138400,16.390138427734374,-4.390965938568115,-4.367023944854736,4.934449672698975
1759864139892178400,16.400178466796874,-4.220977783203125,-4.721365928649902,4.960785865783691
1759864139902280000,16.410280029296874,-4.010287761688232,-4.481945514678955,4.884171485900879
1759864139912350700,16.420350830078124,-4.290409564971924,-4.034229755401611,4.955997467041016
1759864139922421500,16.43042138671875,-4.697423934936523,-4.039018154144287,5.2049946784973145
1759864139932461800,16.4404619140625,-5.262455463409424,-4.481945514678955,5.588066577911377
1759864139942532600,16.45053271484375,-5.499481201171875,-4.9583916664123535,5.889736175537109
1759864139952633900,16.4606337890625,-5.310339450836182,-5.07570743560791,6.0405707359313965
1759864139962704600,16.47070458984375,-4.922478675842285,-4.8722004890441895,6.016628742218018
1759864139972775400,16.480775390625,-4.54419469833374,-4.651933670043945,6.054935932159424
1759864139982846200,16.49084619140625,-4.8482584953308105,-4.505887508392334,6.325480937957764
1759864139992917000,16.5009169921875,-5.118803024291992,-4.862623691558838,6.821080684661865
1759864140003018500,16.5110185546875,-5.398924827575684,-5.6910176277160645,7.287950038909912
1759864140013058600,16.52105859375,-5.9088897705078125,-6.445190906524658,7.524975776672363
1759864140023160000,16.53116015625,-6.119579315185547,-7.003039836883545,7.843404769897461
1759864140033230800,16.54123095703125,-5.9974751472473145,-7.354987621307373,7.91283655166626
1759864140043240400,16.551240478515624,-5.971138954162598,-7.216124057769775,7.759607791900635
1759864140053342000,16.561342041015624,-6.358999729156494,-6.823474884033203,7.654263019561768
1759864140063412700,16.571412841796874,-6.607996463775635,-6.761225700378418,7.572859764099121
1759864140083584800,16.591584716796874,-6.801927089691162,-6.289567947387695,7.560888767242432
1759864140093625000,16.601625,-7.06528902053833,-6.315904140472412,7.778761386871338
1759864140103726300,16.611726318359374,-7.218518257141113,-6.596025466918945,8.288725852966309
1759864140113797000,16.621797119140624,-7.884106159210205,-6.732495307922363,9.033323287963867
1759864140123868000,16.631867919921874,-8.746018409729004,-7.285555839538574,9.035717010498047
1759864140133938700,16.641938720703124,-8.707711219787598,-7.668628215789795,8.427590370178223
1759864140144040200,16.652040283203124,-8.324639320373535,-6.818686485290527,7.173028469085693
1759864140154111000,16.662111083984374,-7.862558364868164,-5.513846397399902,6.026205539703369
1759864140164181800,16.672181640625,-7.115567684173584,-4.903325080871582,5.2265424728393555
1759864140194485800,16.70248583984375,-6.3063273429870605,-6.184223175048828,5.549759387969971
1759864140204556500,16.712556640625,-6.648698329925537,-6.301538944244385,5.96874475479126
1759864140214627300,16.72262744140625,-7.022193431854248,-6.172252178192139,5.762843608856201
1759864140224698000,16.732697998046874,-6.98628044128418,-6.035782337188721,5.317522048950195
1759864140234769000,16.742768798828124,-6.703764915466309,-5.659893035888672,4.98472785949707
1759864140244870100,16.7528701171875,-6.184223175048828,-5.327098846435547,4.6950297355651855
1759864140254971400,16.762971435546874,-5.894524574279785,-5.293580055236816,4.568136692047119
1759864140315396400,16.823396240234374,-5.738901615142822,-5.535394191741943,4.577713489532471
1759864140325467100,16.833467041015624,-5.738901615142822,-5.535394191741943,4.577713489532471
1759864140335538000,16.843537841796874,-5.559336185455322,-5.051765441894531,4.522646903991699
1759864140345639200,16.85363916015625,-5.1810526847839355,-4.474762916564941,4.55616569519043
1759864140355710000,16.8637099609375,-4.7189717292785645,-4.230554580688477,4.333505153656006
1759864140365780700,16.87378076171875,-4.383783340454102,-4.266467571258545,4.218583583831787
1759864140375821000,16.883821044921874,-4.156333923339844,-4.311957359313965,4.216189384460449
1759864140395962600,16.903962646484374,-3.5027170181274414,-4.6950297355651855,4.2544965744018555
1759864140406033400,16.914033447265624,-3.667917013168335,-4.9583916664123535,4.529829502105713
1759864140416135000,16.924135009765624,-3.646369218826294,-5.094861030578613,4.912901878356934
1759864140426175200,16.93417529296875,-3.751713991165161,-5.125985622406006,5.188235282897949
1759864140436276500,16.9442763671875,-3.711012601852417,-5.018246650695801,5.178658485412598
1759864140446377700,16.954377685546874,-3.754108190536499,-5.102043628692627,5.1331682205200195
1759864140456418000,16.96441796875,-3.9217023849487305,-5.1331682205200195,5.054159641265869
1759864140466519300,16.974519287109374,-3.9169139862060547,-5.16429328918457,5.118803024291992
1759864140476590000,16.984590087890624,-3.93367338180542,-5.363011837005615,5.173870086669922
1759864140506802700,17.014802734375,-4.76924991607666,-5.6910176277160645,5.669469833374023
1759864140516873500,17.02487353515625,-4.663905143737793,-5.78678560256958,5.583278179168701
1759864140526944300,17.0349443359375,-4.680664539337158,-5.808333396911621,5.549759387969971
1759864140536984600,17.044984619140624,-4.81473970413208,-5.789179801940918,5.743690013885498
1759864140547085800,17.0550859375,-5.145139217376709,-6.256049156188965,6.258443355560303
1759864140557187000,17.06518701171875,-5.52821159362793,-7.141903877258301,6.751648902893066
1759864140567288300,17.075288330078124,-5.975927352905273,-7.3693528175354,7.144298076629639
1759864140577359000,17.085359130859374,-6.739677906036377,-7.228095054626465,7.326257228851318
1759864140617673000,17.1256728515625,-6.021417140960693,-7.017405033111572,6.718130111694336
1759864140627713300,17.13571337890625,-5.726930618286133,-7.0341644287109375,6.907271862030029
1759864140637784000,17.1457841796875,-5.849034786224365,-7.220912456512451,7.283161640167236
1759864140647824400,17.155824462890624,-6.509834289550781,-7.625532627105713,7.603984832763672
1759864140657925600,17.165925537109374,-7.252037048339844,-7.862558364868164,7.661445617675781
1759864140668027000,17.17602685546875,-7.90086555480957,-7.824251174926758,7.491456985473633
1759864140678097700,17.18609765625,-7.915230751037598,-7.378929615020752,7.347805023193359
1759864140688168400,17.19616845703125,-7.615955829620361,-6.50025749206543,6.828263282775879
1759864140718381000,17.226381103515624,-6.979097843170166,-5.123591423034668,6.050147533416748
1759864140728482300,17.236482421875,-7.010222434997559,-5.468356609344482,6.358999729156494
1759864140738553000,17.246552978515624,-7.259219646453857,-5.710171222686768,6.560112476348877
1759864140748624000,17.256623779296874,-7.496245384216309,-5.552153587341309,6.447585105895996
1759864140758694700,17.266694580078124,-7.750030994415283,-5.006275653839111,6.141127586364746
1759864140768735000,17.27673486328125,-7.948749542236328,-4.359841346740723,6.01423454284668
1759864140778805800,17.2868056640625,-7.800309181213379,-3.6822822093963623,5.916072368621826
1759864140788846000,17.29684619140625,-7.491456985473633,-3.5721490383148193,5.736507415771484
1759864140798916900,17.306916748046874,-7.046135425567627,-4.134786128997803,5.635950565338135
1759864140839200000,17.347199951171874,-5.8657941818237305,-4.876988887786865,5.4659624099731445
1759864140859311000,17.36731103515625,-5.0876784324646,-4.235342979431152,5.116408824920654
1759864140869382000,17.3773818359375,-4.888959884643555,-4.264073371887207,5.157110691070557
1759864140879452700,17.38745263671875,-4.580107688903809,-4.213795185089111,5.049371242523193
1759864140889523500,17.3975234375,-4.134786128997803,-4.19224739074707,4.9799394607543945
1759864140899594200,17.40759423828125,-4.065354347229004,-4.338293552398682,5.07570743560791
1759864140909665000,17.4176650390625,-3.9001545906066895,-4.460397720336914,4.960785865783691
1759864140919766500,17.4277666015625,-3.9193081855773926,-4.5609540939331055,4.991910457611084
1759864140929806600,17.437806640625,-4.084507942199707,-4.503493309020996,5.288791656494141
1759864140939908000,17.447908203125,-4.1874589920043945,-4.185064792633057,5.456385612487793
1759864140949979000,17.457978759765624,-4.235342979431152,-4.055777549743652,5.365406036376953
1759864140960080100,17.468080078125,-4.426878929138184,-4.125209331512451,5.288791656494141
1759864140970212000,17.478212158203124,-4.642356872558594,-4.259284973144531,5.1810526847839355
1759864140980313300,17.488313232421874,-4.750096321105957,-4.517858505249023,5.317522048950195
1759864140990384000,17.498384033203124,-4.793191909790039,-4.857835292816162,5.56173038482666
1759864141030697700,17.53869775390625,-5.822698593139648,-5.542576789855957,5.995080947875977
1759864141050870000,17.5588701171875,-5.394136428833008,-5.566518783569336,6.160281181335449
1759864141060971300,17.56897119140625,-5.322310447692871,-5.5976433753967285,6.4380083084106445
1759864141071072500,17.579072509765624,-5.446808815002441,-5.693411827087402,6.809109687805176
1759864141081143300,17.589143310546874,-5.784391403198242,-6.011840343475342,7.223306655883789
1759864141091214000,17.599214111328124,-6.0405707359313965,-6.287173748016357,7.407660007476807
1759864141101284900,17.609284912109374,-6.517016887664795,-6.514622688293457,7.726089000701904
