time,seconds_elapsed,z,y,x
1759864122633286700,-0.85871337890625,0.016759412363171577,0.09576806426048279,-0.10773907601833344
1759864122663560200,-0.828439697265625,-0.023942016065120697,0.023942016065120697,-0.06703764945268631
1759864122693833500,-0.79816650390625,0.031124621629714966,0.031124621629714966,-0.1149216815829277
1759864122734238700,-0.75776123046875,-0.05027823522686958,-0.07182604819536209,-0.0933738648891449
1759864122744340000,-0.747659912109375,-0.11971008777618408,-0.15322890877723694,-0.011971008032560349
1759864122754411000,-0.737589111328125,-0.07422025501728058,-0.1412578970193863,0
1759864122764512300,-0.72748779296875,-0.047884032130241394,-0.10773907601833344,-0.011971008032560349
1759864122794724600,-0.697275390625,-0.15801730751991272,0,0.023942016065120697
1759864122855118800,-0.636881103515625,-0.16998831927776337,-0.07182604819536209,-0.0071826050989329815
1759864122895371500,-0.59662841796875,-0.22026655077934265,0.019153613597154617,-0.10534487664699554
1759864122905473000,-0.58652685546875,-0.15801730751991272,0.05985504388809204,-0.12928688526153564
1759864122975938000,-0.51606201171875,-1.2737152576446533,0.8403648138046265,1.3096283674240112
1759864122996140500,-0.495859375,-0.09816227108240128,-0.1388636976480484,0.21547815203666687
1759864123066636300,-0.42536376953125,-0.023942016065120697,0.08140286058187485,-0.16759411990642548
1759864123076676600,-0.415323486328125,0.06224924325942993,0.24181437492370605,-0.05506663769483566
1759864123106858500,-0.3851416015625,-0.23702596127986908,0.9385270476341248,-0.31364041566848755
1759864123147141600,-0.3448583984375,-2.454056739807129,2.96162748336792,-0.45010992884635925
1759864123197465000,-0.294534912109375,-1.6879122257232666,0.8667010068893433,-0.1388636976480484
1759864123247849700,-0.244150390625,-1.6735470294952393,-0.3280056416988373,-0.6823474764823914
1759864123278062000,-0.21393798828125,-2.4396915435791016,-2.365471363067627,-1.3096283674240112
1759864123298203600,-0.19379638671875,-3.201047658920288,-4.790797710418701,-1.7980455160140991
1759864123328477200,-0.163522705078125,-5.494692802429199,-9.617507934570312,-1.0031704902648926
1759864123378861600,-0.113138427734375,-6.555324077606201,-9.914389610290527,2.5115175247192383
1759864123399003100,-0.092996826171875,-7.781155586242676,-8.827422142028809,3.8163576126098633
1759864123409074000,-0.082926025390625,-6.864176273345947,-7.826645374298096,4.2544965744018555
1759864123439286300,-0.052713623046875,-1.98958158493042,-5.463568210601807,2.691082715988159
1759864123449387800,-0.0426123046875,-0.4812345504760742,-5.592854976654053,1.3838485479354858
1759864123459458600,-0.03254150390625,1.0079588890075684,-4.000710964202881,0.16998831927776337
1759864123469559800,-0.022440185546875,0.6177040338516235,-3.5218706130981445,-0.608127236366272
1759864123499833300,0.007833251953125,-1.4245500564575195,-3.3303346633911133,-0.3687070608139038
1759864123530106600,0.038106689453125,-1.292868971824646,-3.248931646347046,0.6320692300796509
1759864125153476600,1.6614765625,-2.647987127304077,-0.7230489253997803,0.7733271718025208
1759864125163478000,1.67147802734375,-3.466804027557373,0.5099649429321289,-0.29209262132644653
1759864125173348600,1.6813486328125,-0.014365210197865963,-0.031124621629714966,0.023942016065120697
1759864125183219500,1.691219482421875,0.545877993106842,0.14844051003456116,-0.1173158809542656
1759864125203361000,1.711361083984375,-0.023942016065120697,0.7326257228851318,-1.623268723487854
1759864125213431800,1.721431884765625,0.047884032130241394,0.6057330369949341,-1.259350061416626
1759864125223502600,1.731502685546875,0.047884032130241394,0.26815059781074524,0.33997663855552673
1759864125263786000,1.771785888671875,0.5291185975074768,0.33997663855552673,-0.6416460275650024
1759864125283927600,1.791927490234375,0.9552865028381348,-0.5889736413955688,0.33279404044151306
1759864125294028800,1.80202880859375,1.2761094570159912,-0.6871358752250671,0.15083470940589905
1759864125304130000,1.812130126953125,0.2537853717803955,0.2801215946674347,0.33758243918418884
1759864125354453800,1.862453857421875,-1.2018892765045166,-0.08140286058187485,0.17717093229293823
1759864125374525700,1.882525634765625,-0.37828385829925537,-0.181959331035614,0.004788403399288654
1759864125384596500,1.892596435546875,0.6655880808830261,-0.5410895943641663,0.11013327538967133
1759864125424910300,1.932910400390625,-0.19393034279346466,-0.42616790533065796,0.21308395266532898
1759864125434981000,1.942981201171875,-0.9169792532920837,-0.08379705995321274,-0.4141969084739685
1759864125445021400,1.953021484375,-0.35913026332855225,0.06224924325942993,-0.5530605912208557
1759864125455092200,1.96309228515625,-1.1420341730117798,-0.7206547260284424,0.5315127968788147
1759864125465163000,1.9731630859375,-1.5131354331970215,-0.11971008777618408,0.7733271718025208
1759864125525618200,2.0336181640625,-0.5386953949928284,0.31364041566848755,-2.5234885215759277
1759864125545790500,2.05379052734375,0.2346317619085312,-0.5626373887062073,-1.316810965538025
1759864125555861200,2.063861328125,0.33758243918418884,-0.545877993106842,0.033518824726343155
1759864125565932000,2.07393212890625,-0.035913024097681046,-0.7015010714530945,1.4317326545715332
1759864125596205600,2.10420556640625,-1.0342950820922852,-0.2106897532939911,4.290409564971924
1759864125606276400,2.1142763671875,-1.359906554222107,0.05985504388809204,4.2544965744018555
1759864125616347100,2.12434716796875,-1.7956513166427612,0.608127236366272,3.0310592651367188
1759864125636458200,2.144458251953125,-0.5650315880775452,0.5315127968788147,-0.3495534360408783
1759864125646529000,2.154529052734375,0.023942016065120697,0.07422025501728058,-1.5275006294250488
1759864125656599800,2.164599853515625,0.090979665517807,-0.38307225704193115,-1.5921441316604614
1759864125666701000,2.174701171875,-0.38067805767059326,-0.6272808313369751,-0.7158663272857666
1759864125686873000,2.194873046875,-0.49559974670410156,-0.38307225704193115,0.06703764945268631
1759864125727156500,2.235156494140625,-0.07182604819536209,-0.304063618183136,0.7110779285430908
1759864125737257700,2.2452578125,-0.42616790533065796,-0.507570743560791,0.3711012601852417
1759864125747328500,2.25532861328125,-0.7924807667732239,-0.33758243918418884,0.29209262132644653
1759864125757399300,2.2653994140625,-0.7038952708244324,-0.20111294090747833,0.05746084079146385
1759864125767470000,2.275469970703125,-0.05267243832349777,-0.10055647045373917,-0.13168109953403473
1759864125827864300,2.3358642578125,0.002394201699644327,-0.7637503147125244,0.4908113479614258
1759864125837965800,2.3459658203125,0.016759412363171577,0.1604115068912506,0.14844051003456116
1759864125858137900,2.366137939453125,-0.569819986820221,1.0797849893569946,-0.6200982332229614
1759864125868208600,2.376208740234375,-0.44771572947502136,0.18914192914962769,-0.5937620401382446
1759864125878249000,2.3862490234375,0.3495534360408783,0.4381389021873474,-0.21787235140800476
1759864125918562600,2.4265625,-0.8643068075180054,-0.21547815203666687,1.6855180263519287
1759864125928664000,2.4366640625,-0.7709329724311829,0.7422025203704834,1.946485996246338
1759864125938765300,2.446765380859375,-1.1635819673538208,0.7613561153411865,0.9672574996948242
1759864125948866600,2.456866455078125,-0.5961562395095825,-0.7206547260284424,0.8930372595787048
1759864125958937300,2.466937255859375,-0.038307227194309235,-1.290474772453308,0.16519992053508759
1759864125969038600,2.47703857421875,0.8978256583213806,-0.6057330369949341,-1.2066776752471924
1759864125979079000,2.487078857421875,1.3431471586227417,0.26575639843940735,-2.5498247146606445
1759864126019392800,2.527392822265625,0.6967126727104187,0.2082955539226532,-2.274491548538208
1759864126029463600,2.537463623046875,0.1604115068912506,0.35913026332855225,-2.1092917919158936
1759864126039534300,2.547534423828125,0.5434837937355042,-1.0678139925003052,-1.7693150043487549
1759864126049635600,2.557635498046875,3.1076738834381104,-3.0166940689086914,-11.767500877380371
1759864126059706400,2.567706298828125,-0.5913678407669067,-2.52109432220459,-8.29830265045166
1759864126069746700,2.57774658203125,1.173158884048462,-1.403002142906189,-3.2776620388031006
1759864126079848000,2.587847900390625,-0.3974374830722809,0.9050082564353943,1.139639973640442
1759864126110121500,2.61812158203125,-1.7334020137786865,2.140416383743286,2.4420857429504395
1759864126120131300,2.62813134765625,-1.8626888990402222,0.5578489899635315,0.9792284965515137
1759864126140303400,2.648303466796875,-1.3120225667953491,-1.216254472732544,0.45010992884635925
1759864126150404600,2.658404541015625,-0.8858546018600464,-1.3335703611373901,1.1659762859344482
1759864126160414500,2.66841455078125,-0.7206547260284424,-1.4245500564575195,1.8770540952682495
1759864126170485200,2.6784853515625,-0.730231523513794,-1.2665326595306396,2.056619167327881
1759864126180586500,2.68858642578125,-0.8595184087753296,-1.3694833517074585,1.7310078144073486
1759864126190657300,2.6986572265625,-0.727837324142456,-1.4676456451416016,1.7046716213226318
1759864126220839200,2.728839111328125,-0.49320554733276367,-1.1971008777618408,0.586579442024231
1759864126230910000,2.738909912109375,-1.0558429956436157,-1.0558429956436157,0.586579442024231
1759864126240950300,2.7489501953125,-0.31364041566848755,-0.8571242094039917,0.689530074596405
1759864126251051500,2.759051513671875,1.0031704902648926,-0.5674257874488831,0.5746083855628967
1759864126261122600,2.76912255859375,1.2713210582733154,-0.5985504388809204,0.3974374830722809
1759864126271193300,2.779193359375,0.3758896589279175,-1.0319008827209473,0.29209262132644653
1759864126281264000,2.78926416015625,0.3256114423274994,-0.9768342971801758,0.24420857429504395
1759864126291335000,2.7993349609375,0.33039984107017517,-0.1867477297782898,0.08619125932455063
1759864126331526400,2.8395263671875,-0.10534487664699554,0.8140285611152649,0.6153098344802856
1759864126341597200,2.84959716796875,0.6105214357376099,0.08858546614646912,0.8667010068893433
1759864126361708300,2.869708251953125,1.5897499322891235,-0.8379706144332886,0.6799532771110535
1759864126381880600,2.889880615234375,0.1173158809542656,0.35913026332855225,0.19393034279346466
1759864126412062500,2.9200625,0.1867477297782898,0.2801215946674347,0.4596867263317108
1759864126422163700,2.930163818359375,0.06703764945268631,0.38307225704193115,0.5793967843055725
1759864126442274800,2.95027490234375,1.0654197931289673,1.2306196689605713,-0.1388636976480484
1759864126452376000,2.9603759765625,0.4908113479614258,1.1109095811843872,-0.45250412821769714
1759864126462446800,2.97044677734375,-0.3758896589279175,0.7230489253997803,-0.3471592366695404
1759864126472517600,2.980517578125,-0.011971008032560349,0.5434837937355042,-0.07661445438861847
1759864126482588400,2.99058837890625,0.7469909191131592,0.10295066982507706,0.2992752194404602
1759864126512770300,3.020770263671875,1.1085153818130493,-0.4836287498474121,0.8140285611152649
1759864126532911900,3.040911865234375,0.2059013396501541,0.15562310814857483,0.6344634294509888
1759864126543013400,3.051013427734375,-0.19632454216480255,-0.1412578970193863,0.7469909191131592
1759864126553053700,3.0610537109375,0.22505496442317963,-0.2585737705230713,0.950498104095459
1759864126563124500,3.07112451171875,0.6847416758537292,-0.10055647045373917,0.9648633003234863
1759864126573195300,3.0811953125,0.6703764796257019,0.16519992053508759,0.8834604024887085
1759864126583296500,3.091296630859375,0.5889736413955688,0.45250412821769714,0.6823474764823914
1759864126593367300,3.1013671875,0.6416460275650024,0.7565677165985107,0.5003881454467773
1759864126643721200,3.15172119140625,0.2825157940387726,0.2825157940387726,-0.004788403399288654
1759864126663863000,3.171863037109375,0.1604115068912506,0.6129156351089478,-0.8331822156906128
1759864126673933800,3.181933837890625,-0.09576806426048279,-0.12689268589019775,-0.7996633648872375
1759864126684035000,3.19203515625,-0.0694318488240242,-0.11971008777618408,-0.7733271718025208
1759864126694105900,3.20210595703125,0.011971008032560349,-0.9768342971801758,-0.6440402865409851
1759864126714308400,3.222308349609375,0.20350714027881622,-1.158793568611145,-0.8068459630012512
1759864126734450200,3.2424501953125,-0.16759411990642548,-1.2856862545013428,0.12210428714752197
1759864126754591700,3.262591796875,-0.047884032130241394,-0.8307880163192749,0.7924807667732239
1759864126764693000,3.27269287109375,0.17956513166427612,-0.21547815203666687,0.730231523513794
1759864126774763800,3.282763671875,0.31603461503982544,0.5147533416748047,0.507570743560791
1759864126784865000,3.292864990234375,0.10055647045373917,0.828393816947937,0.3878606855869293
1759864126794966500,3.302966552734375,-0.3016694188117981,1.0773907899856567,0.3280056416988373
1759864126805037300,3.313037353515625,-0.6392518281936646,1.0654197931289673,0.17956513166427612
1759864126835280100,3.343280029296875,0.3423708379268646,0.7254431247711182,-0.3208230137825012
1759864126845381400,3.35338134765625,0.4165911078453064,0.768538773059845,-0.28969839215278625
1759864126855452200,3.3634521484375,0.5147533416748047,0.9648633003234863,-0.22026655077934265
1759864126865553700,3.3735537109375,0.3064578175544739,0.8355764150619507,0.011971008032560349
1759864126875624400,3.38362451171875,0,0.47884035110473633,0.2322375625371933
1759864126885695200,3.3936953125,-0.3208230137825012,0.24899697303771973,0.42377370595932007
1759864126895796500,3.40379638671875,-0.31124621629714966,0.11013327538967133,0.5482721924781799
1759864126905867300,3.4138671875,0,0.06224924325942993,0.3878606855869293
1759864126915968500,3.423968505859375,0.44532153010368347,0.272938996553421,0.21547815203666687
1759864126936079600,3.44407958984375,0.7134721279144287,0.7230489253997803,0.3016694188117981
1759864126956221400,3.464221435546875,0.4908113479614258,0.35434186458587646,0.4644751250743866
1759864126966322700,3.47432275390625,0.3423708379268646,0.17956513166427612,0.47405192255973816
1759864126976393500,3.4843935546875,0.07661445438861847,0.1149216815829277,0.5027823448181152
1759864126986494700,3.49449462890625,-0.22505496442317963,-0.24899697303771973,0.5793967843055725
1759864126996535000,3.50453515625,-0.21547815203666687,-0.4405331015586853,0.6177040338516235
1759864127006636300,3.51463623046875,-0.0694318488240242,-0.3232172429561615,0.6153098344802856
1759864127036818200,3.544818115234375,0.3878606855869293,-0.42616790533065796,0.3758896589279175
1759864127046919700,3.554919677734375,0.019153613597154617,-0.8331822156906128,0.6536170840263367
1759864127056990500,3.564990478515625,-0.3878606855869293,-1.1420341730117798,0.9457096457481384
1759864127067030500,3.575030517578125,-0.8164227604866028,-1.2737152576446533,1.139639973640442
1759864127077101600,3.5851015625,-0.9983820915222168,-1.3024457693099976,1.3263877630233765
1759864127087172400,3.59517236328125,-0.7996633648872375,-1.2258312702178955,1.1300631761550903
1759864127097243100,3.6052431640625,-0.5051765441894531,-0.9050082564353943,0.7781155705451965
1759864127107344400,3.615344482421875,-0.4429273009300232,-0.7038952708244324,0.5363011956214905
1759864127117384700,3.625384765625,-0.3280056416988373,-0.5793967843055725,0.4381389021873474
1759864127157698300,3.6656982421875,-1.886630892753601,-1.2425906658172607,0.45250412821769714
1759864127167769000,3.67576904296875,-2.0015525817871094,-1.2258312702178955,0.12210428714752197
1759864127177839900,3.68583984375,-2.075772762298584,-1.1899182796478271,-0.16998831927776337
1759864127187941400,3.69594140625,-2.2601263523101807,-1.0845733880996704,-0.6919242739677429
1759864127197981700,3.705981689453125,-2.3056161403656006,-1.0654197931289673,-0.7110779285430908
1759864127208052500,3.716052490234375,-2.604891538619995,-0.5650315880775452,-1.1228805780410767
1759864127218123300,3.726123291015625,-2.5522189140319824,0.021547814831137657,-1.580173134803772
1759864127258406400,3.766406494140625,-2.2218191623687744,-0.2561795711517334,-1.8555063009262085
1759864127268507600,3.776507568359375,-2.3726539611816406,-0.7038952708244324,-1.6208745241165161
1759864127278609000,3.78660888671875,-2.406172752380371,-0.9576807022094727,-1.5418659448623657
1759864127288680000,3.796679931640625,-2.1739351749420166,-1.1659762859344482,-1.6424223184585571
1759864127298750700,3.806750732421875,-1.647210717201233,-1.158793568611145,-1.745373010635376
1759864127308790800,3.816790771484375,-1.137245774269104,-0.8164227604866028,-1.8698714971542358
1759864127318861800,3.82686181640625,-0.6943184733390808,-0.6224924325942993,-1.7741034030914307
1759864127328932600,3.8369326171875,-0.4812345504760742,-0.6440402865409851,-1.53707754611969
1759864127339033900,3.847033935546875,-0.4644751250743866,-1.0271124839782715,-1.1300631761550903
1759864127359206000,3.867205810546875,-0.3423708379268646,-1.1851298809051514,-0.08858546614646912
1759864127369307100,3.87730712890625,-0.17956513166427612,-0.9409212470054626,0.19871874153614044
1759864127379347500,3.887347412109375,-0.11252748221158981,-0.5267243981361389,0.24899697303771973
1759864127389449000,3.897448974609375,0.2753331959247589,-0.08858546614646912,-0.011971008032560349
1759864127399550200,3.90755029296875,0.5841852426528931,0.33758243918418884,-0.15083470940589905
1759864127409590500,3.917590576171875,0.7254431247711182,0.6943184733390808,-0.363918662071228
1759864127419661300,3.927661376953125,0.7709329724311829,0.9217676520347595,-0.2322375625371933
1759864127429732000,3.937732177734375,0.7230489253997803,1.039083480834961,-0.24181437492370605
1759864127460005400,3.96800537109375,0.9983820915222168,0.689530074596405,0.13168109953403473
1759864127470107000,3.97810693359375,1.1300631761550903,0.4429273009300232,0.14365209639072418
1759864127480208100,3.9882080078125,1.256955862045288,0.304063618183136,0.1388636976480484
1759864127490248400,3.99824853515625,1.4173674583435059,0.26096799969673157,0.06703764945268631
1759864127500319200,4.0083193359375,1.3862427473068237,0.33518823981285095,-0.05985504388809204
1759864127510390000,4.01839013671875,1.1971008777618408,0.40940847992897034,-0.08858546614646912
1759864127520460800,4.028460693359375,1.0893617868423462,0.5770025849342346,0.040701430290937424
1759864127530562000,4.03856201171875,1.0749965906143188,0.3878606855869293,-0.011971008032560349
1759864127550764800,4.058764892578125,0.6248866319656372,-0.21308395266532898,0.16759411990642548
1759864127560835600,4.068835693359375,0.49320554733276367,-0.5674257874488831,0.33758243918418884
1759864127570906400,4.07890625,0.5123591423034668,-0.8164227604866028,0.4429273009300232
1759864127580977200,4.08897705078125,0.629675030708313,-0.8834604024887085,0.40462008118629456
1759864127591048000,4.0990478515625,0.6607996821403503,-0.6823474764823914,0.2082955539226532
1759864127601149200,4.109149169921875,0.3016694188117981,-0.3878606855869293,0.10295066982507706
1759864127611250700,4.119250732421875,-0.2777273952960968,-0.1604115068912506,0.2968810200691223
1759864127621321500,4.129321533203125,-0.8044517636299133,-0.4189853072166443,0.6272808313369751
1759864127631392300,4.139392333984375,-0.9840168952941895,-0.8954314589500427,0.933738648891449
1759864127641432600,4.1494326171875,-1.338358759880066,-1.3263877630233765,1.194706678390503
1759864127671705900,4.179705810546875,-2.0039467811584473,-0.9050082564353943,0.8020575642585754
1759864127681746200,4.18974609375,-1.7812861204147339,-0.8834604024887085,0.5674257874488831
1759864127691847400,4.199847412109375,-1.338358759880066,-1.1204863786697388,0.4692635238170624
1759864127701949000,4.209948974609375,-1.0295066833496094,-1.0678139925003052,0.2801215946674347
1759864127712050200,4.22005029296875,-1.0342950820922852,-1.0630255937576294,0.2801215946674347
1759864127722121000,4.230120849609375,-0.7134721279144287,-0.5099649429321289,0.05985504388809204
1759864127732191700,4.240191650390625,-0.6009446382522583,0.09576806426048279,0.028730420395731926
1759864127742262500,4.250262451171875,-0.7230489253997803,0.1843535304069519,0.10295066982507706
1759864127772536000,4.2805361328125,-0.7134721279144287,0.9481038451194763,-0.3734954595565796
1759864127782606800,4.29060693359375,-1.3455413579940796,0.6129156351089478,0.272938996553421
1759864127792677600,4.300677734375,-1.9823989868164062,-0.0071826050989329815,1.0079588890075684
1759864127802687500,4.3106875,-2.403778553009033,-0.38546648621559143,1.3431471586227417
1759864127812788700,4.320788818359375,-2.319981336593628,-0.4884171485900879,0.9002198576927185
1759864127822859500,4.330859619140625,-2.5091233253479004,0.035913024097681046,0.0694318488240242
1759864127832960800,4.340960693359375,-2.8347349166870117,0.9385270476341248,-0.7589619159698486
1759864127843001000,4.3510009765625,-2.8562827110290527,1.7094600200653076,-1.4053963422775269
1759864127863173000,4.371173095703125,-2.229001760482788,2.434903144836426,-2.1595699787139893
1759864127893446700,4.40144677734375,-0.7805097699165344,0.828393816947937,-1.3287819623947144
1759864127903517400,4.411517333984375,-0.608127236366272,0.19632454216480255,-0.6440402865409851
1759864127913618700,4.42161865234375,-0.4141969084739685,-0.38067805767059326,-0.038307227194309235
1759864127923689500,4.431689453125,-0.004788403399288654,-0.6177040338516235,0.31364041566848755
1759864127933760300,4.44176025390625,0.4405331015586853,-0.5291185975074768,0.524330198764801
1759864127943831300,4.451831298828125,0.828393816947937,-0.3016694188117981,0.5219359993934631
1759864127974074000,4.48207421875,2.319981336593628,0.7350199222564697,-0.1604115068912506
1759864127994215700,4.502215576171875,2.8874073028564453,1.0199298858642578,-0.5003881454467773
1759864128004286500,4.512286376953125,2.9712042808532715,0.912190854549408,-0.3423708379268646
1759864128014357200,4.522357177734375,3.0861260890960693,0.9744400978088379,0.05746084079146385
1759864128024397600,4.5323974609375,2.964021682739258,1.213860273361206,0.2992752194404602
1759864128034498800,4.542498779296875,2.7772738933563232,1.3886369466781616,0.3878606855869293
1759864128044569600,4.552569580078125,2.7724854946136475,1.5131354331970215,0.2753331959247589
1759864128064711400,4.57271142578125,2.6001031398773193,1.4269442558288574,0.0071826050989329815
1759864128074782200,4.5827822265625,2.832340717315674,1.4413094520568848,0.033518824726343155
1759864128084853000,4.59285302734375,2.7557260990142822,1.2282254695892334,0.26575639843940735
1759864128094923800,4.602923828125,2.734178304672241,1.0989385843276978,0.6344634294509888
1759864128105025000,4.61302490234375,2.580949544906616,0.9840168952941895,1.0534487962722778
1759864128115126300,4.623126220703125,2.183511972427368,0.950498104095459,1.5490485429763794
1759864128125197000,4.633197021484375,1.9057846069335938,0.6823474764823914,1.778891921043396
1759864128135267800,4.643267822265625,1.6496049165725708,0.5650315880775452,2.0015525817871094
1759864128145369300,4.653369384765625,1.3263877630233765,0.2992752194404602,1.9632453918457031
1759864128155440000,4.663440185546875,1.01753568649292,-0.26575639843940735,1.9800047874450684
1759864128175612200,4.683612060546875,0.35434186458587646,-1.3838485479354858,1.845929503440857
1759864128215956500,4.72395654296875,-1.2473790645599365,-1.8076223134994507,1.0989385843276978
1759864128226057700,4.7340576171875,-1.237802267074585,-1.8171991109848022,1.1013327836990356
1759864128236159000,4.744158935546875,-1.2473790645599365,-1.8387469053268433,0.8619126081466675
1759864128246229800,4.754229736328125,-0.9409212470054626,-2.123656988143921,0.8571242094039917
1759864128256300500,4.764300537109375,-0.5578489899635315,-2.0614075660705566,0.7637503147125244
1759864128276442400,4.7844423828125,-0.14604631066322327,-1.721431016921997,0.8020575642585754
1759864128286543600,4.794543701171875,-0.3663128614425659,-1.987187385559082,1.2042834758758545
1759864128296614400,4.804614501953125,-0.7230489253997803,-2.868253707885742,1.6711528301239014
1759864128306685200,4.814685302734375,-0.9983820915222168,-3.3255462646484375,1.7836803197860718
1759864128316786400,4.824786376953125,-1.113303780555725,-2.956839084625244,0.9959878921508789
1759864128326857200,4.834857177734375,-1.5179238319396973,-1.656787633895874,-0.10773907601833344
1759864128336928000,4.844927978515625,-1.580173134803772,-0.36152446269989014,-0.8954314589500427
1759864128346998800,4.854998779296875,-1.9800047874450684,0.3208230137825012,-1.0103530883789062
1759864128377211400,4.88521142578125,-2.298433542251587,-2.6791117191314697,-0.545877993106842
1759864128387251700,4.895251708984375,-3.1196448802948,-3.066972494125366,-0.8643068075180054
1759864128397353000,4.90535302734375,-3.6727054119110107,-2.913743495941162,-1.5538369417190552
1759864128407393300,4.915393310546875,-3.6343982219696045,-2.2026655673980713,-2.0853497982025146
1759864128417464000,4.925464111328125,-2.8155810832977295,-1.6328455209732056,-2.3247697353363037
1759864128427534800,4.935534912109375,-1.9177556037902832,-1.3455413579940796,-2.2002713680267334
1759864128437605600,4.945605712890625,-1.3215993642807007,-0.8858546018600464,-2.1332337856292725
1759864128447676400,4.955676513671875,-0.7015010714530945,-0.5123591423034668,-1.802833914756775
1759864128477919200,4.985919189453125,-0.12689268589019775,-1.4389152526855469,-0.2753331959247589
1759864128487990000,4.995989990234375,0.33039984107017517,-1.41257905960083,-0.12928688526153564
1759864128498060800,5.006060791015625,0.7661445140838623,-1.0271124839782715,-0.2322375625371933
1759864128508131800,5.0161318359375,1.1851298809051514,-0.6177040338516235,-0.4118026793003082
1759864128518202600,5.02620263671875,1.4676456451416016,-0.15083470940589905,-0.5099649429321289
1759864128528303900,5.036303955078125,1.6615760326385498,0.2346317619085312,-0.5961562395095825
1759864128538405000,5.046405029296875,1.6352397203445435,0.5674257874488831,-0.5195417404174805
1759864128548476000,5.056475830078125,1.436521053314209,0.6177040338516235,-0.42377370595932007
1759864128558577200,5.0665771484375,1.0606313943862915,0.6847416758537292,-0.33039984107017517
1759864128598830000,5.106830078125,1.3862427473068237,1.5107412338256836,-0.3280056416988373
1759864128608900900,5.11690087890625,1.6400281190872192,1.3479355573654175,-0.3734954595565796
1759864128618971600,5.1269716796875,1.8052281141281128,1.4437036514282227,-0.42616790533065796
1759864128629073000,5.137072998046875,1.7094600200653076,1.4460978507995605,-0.33758243918418884
1759864128649214500,5.15721435546875,1.623268723487854,1.1420341730117798,-0.3016694188117981
1759864128659285200,5.16728515625,1.6208745241165161,0.9744400978088379,-0.24181437492370605
1759864128699629600,5.207629638671875,1.5634137392044067,0.6200982332229614,-0.5267243981361389
1759864128719801600,5.227801513671875,1.1228805780410767,-0.17956513166427612,-0.33518823981285095
1759864128729902800,5.23790283203125,0.5195417404174805,-0.9169792532920837,0.05506663769483566
1759864128739973600,5.2479736328125,0.49320554733276367,-0.9050082564353943,0.040701430290937424
1759864128750044700,5.258044677734375,-0.05267243832349777,-1.8291701078414917,0.5841852426528931
1759864128760115500,5.268115478515625,-0.730231523513794,-2.209848165512085,1.1348515748977661
1759864128800429000,5.308428955078125,-1.766920804977417,-2.183511972427368,0.9600749015808105
1759864128810530300,5.3185302734375,-1.2880805730819702,-1.8962076902389526,0.7398083209991455
1759864128820631800,5.3286318359375,-0.933738648891449,-1.4077905416488647,0.8403648138046265
1759864128840834300,5.348834228515625,-1.4748282432556152,-1.6400281190872192,1.3934253454208374
1759864128850905000,5.358905029296875,-1.9105730056762695,-1.8818424940109253,1.400607943534851
1759864128861006600,5.369006591796875,-2.075772762298584,-1.6855180263519287,1.3048399686813354
1759864128871046700,5.379046630859375,-2.7916390895843506,-1.1109095811843872,1.4317326545715332
1759864128901228500,5.409228515625,-3.464409828186035,-0.3902548849582672,1.6136919260025024
1759864128911299300,5.41929931640625,-3.6367924213409424,-0.33039984107017517,1.0438719987869263
1759864128931502000,5.439502197265625,-3.9911341667175293,-0.07182604819536209,-0.22505496442317963
1759864128941603300,5.449603271484375,-4.031835556030273,0.524330198764801,-0.8595184087753296
1759864128951674000,5.459674072265625,-4.256890773773193,1.381454348564148,-1.1994950771331787
1759864128961775600,5.469775634765625,-4.2544965744018555,2.1092917919158936,-1.290474772453308
1759864128971846400,5.479846435546875,-3.773261785507202,2.7269957065582275,-1.2641384601593018
1759864129012160000,5.520159912109375,-0.19153612852096558,1.37906014919281,-1.2641384601593018
1759864129022230800,5.530230712890625,0.6943184733390808,0.9145850539207458,-1.072602391242981
1759864129032332000,5.54033203125,1.4460978507995605,0.6751648783683777,-0.8547300100326538
1759864129042311400,5.5503115234375,1.7549498081207275,0.5267243981361389,-0.6320692300796509
1759864129052382200,5.56038232421875,2.013523578643799,0.3495534360408783,-0.5291185975074768
1759864129062483500,5.5704833984375,2.233790159225464,0.49320554733276367,-0.507570743560791
1759864129072523800,5.580523681640625,2.38462495803833,0.7972691655158997,-0.49559974670410156
1759864129102675200,5.61067529296875,2.1763293743133545,1.0797849893569946,-0.6727706789970398
1759864129112776400,5.6207763671875,1.8483237028121948,0.7757213711738586,-0.5674257874488831
1759864129122816800,5.630816650390625,1.522712230682373,0.5961562395095825,-0.47884035110473633
1759864129132887600,5.640887451171875,1.113303780555725,0.6200982332229614,-0.43095630407333374
1759864129142988800,5.65098876953125,0.9576807022094727,0.7805097699165344,-0.49559974670410156
1759864129153090300,5.66109033203125,0.9050082564353943,0.7206547260284424,-0.49559974670410156
1759864129163100000,5.671099853515625,0.8786720037460327,0.667982280254364,-0.6392518281936646
1759864129173170700,5.681170654296875,0.993593692779541,0.727837324142456,-0.6200982332229614
1759864129193343000,5.701343017578125,1.039083480834961,0.7445967197418213,-0.33758243918418884
1759864129203383300,5.71138330078125,1.1468225717544556,0.5578489899635315,-0.08619125932455063
1759864129213484500,5.721484619140625,1.2401964664459229,0.24899697303771973,0.3256114423274994
1759864129223585800,5.731585693359375,1.1827356815338135,0.014365210197865963,0.8690952062606812
1759864129233656600,5.741656494140625,1.2090718746185303,-0.07182604819536209,1.2042834758758545
1759864129243697000,5.75169677734375,1.2210428714752197,-0.08619125932455063,1.2018892765045166
1759864129253798100,5.761798095703125,1.0295066833496094,-0.16998831927776337,1.5969325304031372
1759864129263899600,5.771899658203125,0.790086567401886,-0.3064578175544739,1.9752163887023926
1759864129273970400,5.781970458984375,0.5123591423034668,-0.28969839215278625,2.2218191623687744
1759864129314253600,5.822253662109375,-1.316810965538025,-0.09816227108240128,2.121262788772583
1759864129324294000,5.8322939453125,-1.4293384552001953,-0.44532153010368347,1.9823989868164062
1759864129334334200,5.842334228515625,-1.41257905960083,-0.9744400978088379,1.6711528301239014
1759864129344405000,5.852405029296875,-1.3096283674240112,-1.1468225717544556,1.2066776752471924
1759864129354475800,5.862475830078125,-1.1971008777618408,-1.0821791887283325,0.8762778043746948
1759864129364455000,5.872454833984375,-1.4053963422775269,-0.9983820915222168,1.1755530834197998
1759864129374556200,5.88255615234375,-1.800439715385437,-1.5179238319396973,1.6400281190872192
1759864129384657700,5.89265771484375,-2.252943754196167,-2.209848165512085,1.8291701078414917
1759864129414931000,5.922930908203125,-1.821987509727478,-0.035913024097681046,0.09816227108240128
1759864129424971300,5.93297119140625,-1.8291701078414917,0.33039984107017517,-0.6967126727104187
1759864129435042000,5.9430419921875,-1.9632453918457031,0.22744916379451752,-1.0606313943862915
1759864129445143600,5.9531435546875,-2.252943754196167,-0.42616790533065796,-1.1348515748977661
1759864129455214300,5.96321435546875,-2.4468741416931152,-0.8571242094039917,-0.8475474119186401
1759864129465315600,5.973315673828125,-2.7485435009002686,-0.9576807022094727,-0.828393816947937
1759864129475386400,5.983386474609375,-2.983175277709961,-0.569819986820221,-1.0295066833496094
1759864129485457200,5.99345703125,-2.8227639198303223,-0.22026655077934265,-1.4077905416488647
1759864129505598700,6.0135986328125,-2.2457611560821533,0.0933738648891449,-2.296039342880249
1759864129545881900,6.0538818359375,-1.094150185585022,-0.950498104095459,-0.9959878921508789
1759864129555922200,6.063922119140625,-0.8259995579719543,-1.0223240852355957,-0.811634361743927
1759864129576063700,6.084063720703125,-0.22026655077934265,-0.48602294921875,-0.8259995579719543
1759864129586165200,6.094165283203125,0.1412578970193863,0.08858546614646912,-0.9959878921508789
1759864129596266500,6.1042666015625,0.5219359993934631,0.47884035110473633,-0.9864110946655273
1759864129616408000,6.124407958984375,1.1971008777618408,1.1180921792984009,-0.9624691009521484
1759864129626509300,6.13450927734375,1.4532804489135742,1.3287819623947144,-0.9074024558067322
1759864129636580000,6.144580078125,1.5729905366897583,1.5658079385757446,-0.7565677165985107
1759864129646651000,6.15465087890625,1.5945383310317993,1.7142484188079834,-0.507570743560791
1759864129656752400,6.16475244140625,1.678335428237915,1.800439715385437,-0.3998316824436188
1759864129666853600,6.174853515625,1.7405846118927002,1.7334020137786865,-0.3495534360408783
1759864129676955000,6.184954833984375,1.8483237028121948,1.6855180263519287,-0.31124621629714966
1759864129687025700,6.195025634765625,1.821987509727478,1.6328455209732056,-0.2944868206977844
1759864129697096400,6.205096435546875,1.764526605606079,1.577778935432434,-0.15801730751991272
1759864129737410300,6.245410400390625,1.3742717504501343,0.36152446269989014,-0.47405192255973816
1759864129747481000,6.255481201171875,1.3742717504501343,0.35673606395721436,-0.47644615173339844
1759864129757582300,6.265582275390625,1.237802267074585,0.14604631066322327,-0.3902548849582672
1759864129767683800,6.275683837890625,1.2258312702178955,-0.1604115068912506,-0.2968810200691223
1759864129777754600,6.285754638671875,1.1204863786697388,-0.3711012601852417,-0.26096799969673157
1759864129787825400,6.295825439453125,1.072602391242981,-0.5650315880775452,-0.12689268589019775
1759864129797896200,6.305896240234375,0.7757213711738586,-0.8858546018600464,0.05985504388809204
1759864129838209800,6.346209716796875,-0.9552865028381348,-1.778891921043396,1.9105730056762695
1759864129848280600,6.356280517578125,-1.3479355573654175,-2.073378562927246,2.0039467811584473
1759864129858382000,6.366382080078125,-1.6041151285171509,-1.5897499322891235,1.659181833267212
1759864129878584600,6.38658447265625,-1.599326729774475,-0.3998316824436188,1.5658079385757446
1759864129888625000,6.396625,-1.2330138683319092,-0.2777273952960968,1.778891921043396
1759864129898726100,6.40672607421875,-0.6847416758537292,-0.3256114423274994,1.987187385559082
1759864129908797000,6.416796875,-0.5123591423034668,-0.42856210470199585,2.0638017654418945
1759864129949141200,6.457141357421875,-1.9369091987609863,-0.10534487664699554,0.9409212470054626
1759864129959212000,6.4672119140625,-2.298433542251587,0.7398083209991455,1.0271124839782715
1759864129969313300,6.477313232421875,-2.3080103397369385,0.8523358106613159,1.3048399686813354
1759864129979384000,6.487384033203125,-2.3774423599243164,0.13168109953403473,1.2737152576446533
1759864129989424400,6.49742431640625,-2.3702597618103027,-0.45010992884635925,0.8020575642585754
1759864129999526000,6.50752587890625,-2.612074136734009,-0.05746084079146385,0.0933738648891449
1759864130029768700,6.537768798828125,-3.337517261505127,2.1930887699127197,-1.5634137392044067
1759864130049910300,6.55791015625,-2.9903578758239746,2.719813108444214,-1.3455413579940796
1759864130070082300,6.578082275390625,-1.8746598958969116,0.7709329724311829,-0.27054479718208313
1759864130080183800,6.588183837890625,-1.173158884048462,0.40462008118629456,-0.15322890877723694
1759864130090254600,6.598254638671875,-0.6105214357376099,0.5267243981361389,-0.21787235140800476
1759864130100325400,6.608325439453125,0.07661445438861847,0.751779317855835,-0.2298433631658554
1759864130110396200,6.618396240234375,0.5937620401382446,0.9433154463768005,-0.35673606395721436
1759864130120467000,6.628467041015625,0.7422025203704834,0.7829039692878723,-0.29209262132644653
1759864130150740500,6.658740478515625,1.5682021379470825,0.667982280254364,0.1843535304069519
1759864130170851300,6.678851318359375,1.9823989868164062,1.2186486721038818,0.2513911724090576
1759864130180952800,6.688952880859375,1.968033790588379,1.3670891523361206,0.09576806426048279
1759864130191023600,6.699023681640625,2.03507137298584,1.3215993642807007,0.06224924325942993
1759864130201094400,6.709094482421875,1.9823989868164062,1.3479355573654175,-0.08379705995321274
1759864130211195600,6.719195556640625,2.030282974243164,1.41257905960083,-0.10773907601833344
1759864130221266400,6.729266357421875,1.968033790588379,1.2856862545013428,-0.20111294090747833
1759864130251509500,6.759509521484375,1.8171991109848022,0.6967126727104187,-0.3974374830722809
1759864130261610800,6.76961083984375,1.7405846118927002,0.5913678407669067,-0.31124621629714966
1759864130271651000,6.779651123046875,1.7381904125213623,0.5937620401382446,-0.30885201692581177
1759864130281752300,6.78975244140625,1.7477672100067139,0.49559974670410156,-0.27054479718208313
1759864130291853600,6.799853515625,1.8770540952682495,0.44532153010368347,-0.1149216815829277
1759864130301955000,6.809955078125,1.7836803197860718,0.3208230137825012,-0.07422025501728058
1759864130312025900,6.82002587890625,1.4724340438842773,-0.014365210197865963,0.14844051003456116
1759864130322127000,6.830127197265625,1.3215993642807007,-0.2825157940387726,0.42377370595932007
1759864130332198000,6.840197998046875,1.335964560508728,-0.45010992884635925,0.6919242739677429
1759864130362471400,6.870471435546875,1.0534487962722778,-0.7230489253997803,1.4293384552001953
1759864130372572700,6.88057275390625,0.5291185975074768,-0.9409212470054626,1.6280571222305298
1759864130382674000,6.890673828125,-0.22266076505184174,-1.070208191871643,1.9297266006469727
1759864130392714200,6.90071435546875,-0.7230489253997803,-1.0965443849563599,2.070984363555908
1759864130402815500,6.9108154296875,-0.9193734526634216,-1.0055646896362305,2.097320795059204
1759864130412886300,6.92088623046875,-1.0127472877502441,-0.7254431247711182,1.8698714971542358
1759864130422987800,6.93098779296875,-1.139639973640442,-0.6584054827690125,1.8267759084701538
1759864130433058600,6.94105859375,-1.357512354850769,-0.5506663918495178,1.7764976024627686
1759864130463271000,6.97127099609375,-1.5825673341751099,-1.3072341680526733,2.094926595687866
1759864130473341700,6.981341796875,-2.006340980529785,-1.987187385559082,2.1475989818573
1759864130483382000,6.991382080078125,-2.056619167327881,-2.185906171798706,2.0638017654418945
1759864130493483300,7.001483154296875,-1.9919757843017578,-1.7693150043487549,1.7597382068634033
1759864130503584500,7.01158447265625,-1.6065093278884888,-1.2449848651885986,1.158793568611145
1759864130513655300,7.0216552734375,-1.2210428714752197,-0.6991068720817566,0.47884035110473633
1759864130523695600,7.031695556640625,-1.1563993692398071,-0.24181437492370605,0.0454898327589035
1759864130574080300,7.082080322265625,-0.9624691009521484,-0.7398083209991455,-1.0438719987869263
1759864130594252300,7.102252197265625,-1.1204863786697388,0.28969839215278625,-1.9967641830444336
1759864130614393900,7.122393798828125,-0.727837324142456,0.4165911078453064,-1.3982137441635132
1759864130624464600,7.132464599609375,-0.7038952708244324,0.11252748221158981,-0.6536170840263367
1759864130634535400,7.142535400390625,-0.7326257228851318,0.15322890877723694,-0.0933738648891449
1759864130644575700,7.15257568359375,-0.7709329724311829,0.44771572947502136,0.10295066982507706
1759864130654616000,7.162615966796875,-0.9145850539207458,0.751779317855835,0.11971008777618408
1759864130664686800,7.172686767578125,-0.8738836050033569,1.0127472877502441,0.0071826050989329815
1759864130674788000,7.1827880859375,-0.4213795065879822,1.01753568649292,-0.24899697303771973
1759864130684828400,7.192828369140625,0.2825157940387726,0.6799532771110535,-0.5674257874488831
1759864130694899200,7.202899169921875,0.8738836050033569,0.2059013396501541,-0.9193734526634216
1759864130704970000,7.212969970703125,1.2545616626739502,-0.1412578970193863,-1.1971008777618408
1759864130715071500,7.223071533203125,1.3694833517074585,-0.24899697303771973,-1.2473790645599365
1759864130725111800,7.23311181640625,1.4844050407409668,-0.10055647045373917,-1.3766659498214722
1759864130735182600,7.2431826171875,1.4963760375976562,0.13407529890537262,-1.3455413579940796
1759864130745283800,7.253283935546875,1.699883222579956,0.24181437492370605,-1.2210428714752197
1759864130755354600,7.263354736328125,1.8195933103561401,0.35913026332855225,-1.0414776802062988
1759864130785475600,7.2934755859375,2.2361843585968018,-0.06224924325942993,-0.6392518281936646
1759864130795576800,7.303576904296875,2.2026655673980713,-0.12689268589019775,-0.4668693244457245
1759864130805647600,7.313647705078125,2.2601263523101807,-0.2968810200691223,-0.3758896589279175
1759864130815748900,7.323748779296875,2.1092917919158936,-0.36152446269989014,-0.22026655077934265
1759864130825850000,7.33385009765625,2.0039467811584473,-0.5770025849342346,-0.031124621629714966
1759864130835951600,7.34395166015625,1.9081788063049316,-0.9576807022094727,0.05506663769483566
1759864130846052900,7.354052978515625,1.8555063009262085,-1.2976573705673218,0.043095629662275314
1759864130866194400,7.3741943359375,1.314416766166687,-1.2689268589019775,0.1867477297782898
1759864130886366500,7.394366455078125,0.26096799969673157,-1.015141487121582,0.5841852426528931
1759864130906538800,7.414538818359375,0.028730420395731926,-0.8834604024887085,0.8978256583213806
1759864130916609500,7.424609619140625,-0.12689268589019775,-1.2425906658172607,1.1803414821624756
1759864130926710800,7.434710693359375,-0.13168109953403473,-1.9345149993896484,1.6352397203445435
1759864130936781600,7.444781494140625,-0.48602294921875,-2.322375535964966,2.161964178085327
1759864130946822000,7.45482177734375,-1.0127472877502441,-2.0590133666992188,2.612074136734009
1759864130956892700,7.464892578125,-1.5753847360610962,-1.3048399686813354,2.7461493015289307
1759864130987135700,7.4951357421875,-1.4915876388549805,-0.07900865375995636,2.9041666984558105
1759864130997206500,7.50520654296875,-1.359906554222107,-0.37828385829925537,2.964021682739258
1759864131007177200,7.51517724609375,-1.2449848651885986,-0.7015010714530945,2.8419175148010254
1759864131017248000,7.525248046875,-1.256955862045288,-0.7805097699165344,2.492363929748535
1759864131027288300,7.535288330078125,-1.3646949529647827,-0.7757213711738586,2.2601263523101807
1759864131037359000,7.545359130859375,-1.6184803247451782,-0.3471592366695404,1.6519991159439087
1759864131047430000,7.555429931640625,-1.721431016921997,0.0933738648891449,1.173158884048462
1759864131057500700,7.565500732421875,-1.8579005002975464,0.31124621629714966,0.790086567401886
1759864131067571500,7.575571533203125,-2.011129379272461,0.5027823448181152,0.5602431893348694
1759864131087682600,7.5956826171875,-2.008735179901123,0.5147533416748047,0.5027823448181152
1759864131097753300,7.60575341796875,-2.3319525718688965,0.36152446269989014,0.31842881441116333
1759864131107793700,7.615793701171875,-2.343923568725586,0.5315127968788147,-0.002394201699644327
1759864131117834000,7.625833984375,-2.166752576828003,1.1300631761550903,-0.2825157940387726
1759864131127904800,7.63590478515625,-1.941697597503662,1.8363527059555054,-0.5339069962501526
1759864131137975600,7.6459755859375,-1.6304513216018677,2.3080103397369385,-0.7422025203704834
1759864131158147600,7.666147705078125,-0.5889736413955688,2.6216509342193604,-0.9576807022094727
1759864131178320000,7.68631982421875,0.22026655077934265,1.7717092037200928,-0.545877993106842
1759864131188390700,7.696390625,0.7230489253997803,1.3694833517074585,-0.4141969084739685
1759864131198431000,7.706430908203125,1.2761094570159912,1.1324573755264282,-0.3974374830722809
1759864131208501800,7.716501708984375,1.9105730056762695,1.036689281463623,-0.5841852426528931
1759864131218572500,7.726572509765625,2.343923568725586,0.9552865028381348,-0.8786720037460327
1759864131228673800,7.736673828125,2.5785553455352783,0.9050082564353943,-1.0582371950149536
1759864131238744600,7.74674462890625,2.693476915359497,0.8978256583213806,-0.9864110946655273
1759864131248815400,7.7568154296875,2.5498247146606445,0.8331822156906128,-0.8379706144332886
1759864131258886100,7.76688623046875,2.4133553504943848,0.5578489899635315,-0.5123591423034668
1759864131268987600,7.776987548828125,2.3343467712402344,0.22026655077934265,-0.3280056416988373
1759864131289098500,7.797098388671875,2.389413356781006,0.1412578970193863,-0.26096799969673157
1759864131299169500,7.80716943359375,2.47560453414917,0.2082955539226532,-0.3495534360408783
1759864131309240300,7.817240234375,2.564189910888672,0.4429273009300232,-0.42616790533065796
1759864131319341600,7.827341552734375,2.432508945465088,0.6416460275650024,-0.4836287498474121
1759864131329382000,7.8373818359375,2.2888567447662354,0.7038952708244324,-0.3663128614425659
1759864131339452700,7.84745263671875,2.099714994430542,0.7134721279144287,-0.16519992053508759
1759864131349554000,7.857553955078125,1.8315643072128296,0.2513911724090576,0.12210428714752197
1759864131359624700,7.867624755859375,1.4628572463989258,-0.06703764945268631,0.33039984107017517
1759864131399938600,7.9079384765625,0.5985504388809204,-0.10295066982507706,0.730231523513794
1759864131420110600,7.928110595703125,0.4596867263317108,-0.9624691009521484,1.2832920551300049
1759864131430181400,7.938181396484375,0.304063618183136,-1.3862427473068237,1.522712230682373
1759864131440221700,7.9482216796875,-0.07422025501728058,-1.7142484188079834,1.8052281141281128
1759864131450292500,7.95829248046875,-0.5937620401382446,-1.8602946996688843,2.140416383743286
1759864131460393700,7.968393798828125,-1.0342950820922852,-1.845929503440857,2.408566951751709
1759864131500616000,8.008615966796874,-1.5634137392044067,-1.278503656387329,1.9177556037902832
1759864131510717200,8.01871728515625,-1.5969325304031372,-1.4748282432556152,1.8914192914962769
1759864131520788000,8.0287880859375,-1.6496049165725708,-1.7884687185287476,2.1164743900299072
1759864131530858800,8.038858642578125,-2.0254945755004883,-2.0661959648132324,2.2577321529388428
1759864131550969900,8.058969970703124,-2.382230758666992,-1.867477297782898,1.479616641998291
1759864131561010200,8.06901025390625,-2.3104045391082764,-0.8547300100326538,0.9552865028381348
1759864131571081000,8.0790810546875,-1.7597382068634033,0.05746084079146385,0.40940847992897034
1759864131581151700,8.08915185546875,-1.0989385843276978,-0.1364694982767105,-0.26575639843940735
1759864131601293300,8.109293212890625,-0.7038952708244324,-1.1563993692398071,-1.678335428237915
1759864131611394800,8.119394775390624,-0.751779317855835,-0.44532153010368347,-1.8100165128707886
1759864131621496000,8.12949609375,-0.7948749661445618,0.20350714027881622,-1.2258312702178955
1759864131631597300,8.139597412109374,-0.5889736413955688,0.011971008032560349,-0.608127236366272
1759864131641637600,8.1496376953125,-0.4644751250743866,-0.2992752194404602,-0.42377370595932007
1759864131651739000,8.15973876953125,-0.14365209639072418,-0.19871874153614044,-0.6823474764823914
1759864131661810000,8.169809814453124,0.07661445438861847,0.15083470940589905,-0.9864110946655273
1759864131671880700,8.179880615234374,0.3208230137825012,0.4596867263317108,-1.0606313943862915
1759864131681951500,8.189951416015624,0.5578489899635315,0.4692635238170624,-0.912190854549408
1759864131712133400,8.22013330078125,0.8475474119186401,0.05267243832349777,-0.5578489899635315
1759864131722204200,8.2302041015625,0.8762778043746948,0.35913026332855225,-0.6823474764823914
1759864131732244500,8.240244384765624,0.9576807022094727,0.8188169598579407,-0.7422025203704834
1759864131742345700,8.250345703125,1.0438719987869263,0.811634361743927,-0.9074024558067322
1759864131752386000,8.260385986328124,1.2401964664459229,0.7469909191131592,-0.7852981686592102
1759864131762487300,8.2704873046875,1.2473790645599365,0.7350199222564697,-0.7038952708244324
1759864131772558000,8.28055810546875,1.2665326595306396,0.7134721279144287,-0.6991068720817566
1759864131782659300,8.290659423828124,1.0558429956436157,0.7086837291717529,-0.5961562395095825
1759864131792699600,8.30069970703125,1.0845733880996704,0.5722141861915588,-0.4812345504760742
1759864131812810800,8.320810791015624,1.5921441316604614,0.38067805767059326,-0.44771572947502136
1759864131822851000,8.33085107421875,1.7573440074920654,0.40222588181495667,-0.3471592366695404
1759864131832952300,8.340952392578124,1.800439715385437,0.2968810200691223,-0.26336219906806946
1759864131843053600,8.351053466796875,1.7741034030914307,0.42856210470199585,-0.05267243832349777
1759864131853124600,8.36112451171875,1.6831238269805908,0.4836287498474121,0.09816227108240128
1759864131863195400,8.3711953125,1.6855180263519287,0.3495534360408783,0.19153612852096558
1759864131873266200,8.38126611328125,1.6112977266311646,0.10773907601833344,0.3232172429561615
1759864131883306500,8.391306396484374,1.5705963373184204,-0.11013327538967133,0.3232172429561615
1759864131903539500,8.41153955078125,1.6208745241165161,-0.14365209639072418,0.3519476354122162
1759864131943853300,8.451853271484374,1.1013327836990356,-0.8690952062606812,0.8140285611152649
1759864131964025300,8.472025390625,0.27054479718208313,-1.316810965538025,1.0055646896362305
1759864131974126600,8.482126708984374,-0.2944868206977844,-1.659181833267212,1.0773907899856567
1759864131984228000,8.49222802734375,-1.0342950820922852,-1.7932571172714233,1.292868971824646
1759864131994299000,8.502298828125,-1.4413094520568848,-1.534683346748352,1.3239935636520386
1759864132004369700,8.51236962890625,-1.9105730056762695,-1.1348515748977661,1.292868971824646
1759864132034612500,8.542612548828124,-1.7046716213226318,-0.751779317855835,1.460463047027588
1759864132044652800,8.55265283203125,-1.8531121015548706,-1.2114660739898682,1.9345149993896484
1759864132054754000,8.562754150390624,-2.3032219409942627,-1.7980455160140991,2.0015525817871094
1759864132064824800,8.572824951171874,-2.75812029838562,-1.9608511924743652,1.6879122257232666
1759864132074895600,8.5828955078125,-2.956839084625244,-1.482010841369629,1.3287819623947144
1759864132084875000,8.592875,-2.671929121017456,-0.9433154463768005,0.6631938815116882
1759864132094976300,8.602976318359374,-2.2170307636260986,-0.3902548849582672,0.05746084079146385
1759864132105077500,8.613077392578125,-1.6424223184585571,-0.21308395266532898,-0.4692635238170624
1759864132135290000,8.6432900390625,-0.993593692779541,-0.05027823522686958,-0.05267243832349777
1759864132145361000,8.65336083984375,-1.2521674633026123,0.5913678407669067,0.363918662071228
1759864132155431700,8.663431640625,-1.290474772453308,1.3934253454208374,0.545877993106842
1759864132165472000,8.673471923828124,-1.216254472732544,1.946485996246338,0.5506663918495178
1759864132175573200,8.6835732421875,-1.094150185585022,2.58813214302063,0.3687070608139038
1759864132185674500,8.693674560546874,-0.8403648138046265,2.894589900970459,0.33518823981285095
1759864132195775700,8.703775634765625,-0.35913026332855225,2.6455929279327393,0.2968810200691223
1759864132205816000,8.713816162109374,0.1173158809542656,2.030282974243164,0.13407529890537262
1759864132236059100,8.74405908203125,0.933738648891449,1.4844050407409668,-0.38067805767059326
1759864132256170200,8.764170166015624,1.4173674583435059,1.7046716213226318,-0.22505496442317963
1759864132266271500,8.774271484375,1.6974890232086182,1.436521053314209,-0.21308395266532898
1759864132276342300,8.78434228515625,1.9177556037902832,0.9385270476341248,-0.24660277366638184
1759864132286382600,8.794382568359374,1.9512743949890137,0.912190854549408,-0.2322375625371933
1759864132296483800,8.80448388671875,2.293645143508911,0.4836287498474121,-0.17477671802043915
1759864132306554600,8.8145546875,2.3032219409942627,0.14365209639072418,-0.011971008032560349
1759864132316625400,8.82462548828125,2.2026655673980713,-0.035913024097681046,0.1628057211637497
1759864132326665700,8.834665771484374,2.0805611610412598,-0.14604631066322327,0.22744916379451752
1759864132336767000,8.84476708984375,2.1068975925445557,-0.07900865375995636,0.014365210197865963
1759864132346837800,8.854837646484375,2.209848165512085,0,-0.22505496442317963
1759864132356908500,8.864908447265625,2.209848165512085,-0.09576806426048279,-0.47405192255973816
1759864132366948900,8.874948974609374,2.279279947280884,-0.28730419278144836,-0.5003881454467773
1759864132377050400,8.88505029296875,2.2816741466522217,-0.5099649429321289,-0.4812345504760742
1759864132387182000,8.89518212890625,2.0183119773864746,-0.6871358752250671,-0.40222588181495667
1759864132397222400,8.905222412109374,1.742978811264038,-0.8068459630012512,-0.33279404044151306
1759864132407293200,8.915293212890624,1.5059528350830078,-0.828393816947937,-0.05027823522686958
1759864132417394400,8.92539453125,1.455674648284912,-0.6177040338516235,0.11013327538967133
1759864132427496000,8.935495849609374,1.4269442558288574,-0.4429273009300232,0.22505496442317963
1759864132467748600,8.97574853515625,0.31603461503982544,-0.7781155705451965,0.811634361743927
1759864132477819400,8.9858193359375,-0.047884032130241394,-1.1971008777618408,0.8954314589500427
1759864132487920600,8.995920654296874,-0.4908113479614258,-1.4413094520568848,1.259350061416626
1759864132497991400,9.005991455078124,-0.8810662031173706,-1.53707754611969,1.436521053314209
1759864132508062200,9.016062255859374,-1.5466543436050415,-0.9720458984375,1.359906554222107
1759864132518133000,9.026133056640624,-1.8626888990402222,-0.3064578175544739,1.292868971824646
1759864132538274600,9.046274658203124,-1.7525556087493896,-0.8667010068893433,1.3479355573654175
1759864132558416100,9.066416015625,-1.7070658206939697,-2.1571757793426514,1.9776105880737305
1759864132568487200,9.076487060546874,-2.2601263523101807,-2.7437551021575928,2.52109432220459
1759864132578558000,9.086557861328124,-2.980781078338623,-2.8658595085144043,2.5689783096313477
1759864132588659200,9.0966591796875,-3.5003228187561035,-2.0685901641845703,2.2577321529388428
1759864132598699500,9.106699462890624,-3.5194764137268066,-1.4628572463989258,1.6376339197158813
1759864132618841000,9.126841064453124,-1.702277421951294,-0.8379706144332886,0.06703764945268631
1759864132649023000,9.15702294921875,-1.137245774269104,-2.013523578643799,-0.8810662031173706
1759864132669195000,9.177195068359374,-1.0055646896362305,-2.1787235736846924,0.05267243832349777
1759864132679265800,9.187265869140624,-0.8188169598579407,-1.216254472732544,-0.4165911078453064
1759864132689336600,9.197336669921874,-0.3974374830722809,-0.1173158809542656,-1.113303780555725
1759864132699407400,9.207407470703124,-0.014365210197865963,0.7158663272857666,-1.5155296325683594
1759864132709508900,9.2175087890625,0.38546648621559143,0.8379706144332886,-1.4700398445129395
1759864132719610000,9.227610107421874,0.7589619159698486,0.363918662071228,-1.2449848651885986
1759864132729711400,9.23771142578125,1.0079588890075684,-0.031124621629714966,-1.0654197931289673
1759864132739782100,9.2477822265625,1.3000515699386597,0.05027823522686958,-1.0965443849563599
1759864132759954400,9.267954345703124,1.213860273361206,0.6416460275650024,-1.161187767982483
1759864132770025200,9.278025146484374,1.1109095811843872,1.0103530883789062,-1.192312479019165
1759864132780126500,9.28812646484375,1.1468225717544556,1.4437036514282227,-1.2473790645599365
1759864132790166800,9.298166748046874,1.1468225717544556,1.4269442558288574,-1.2665326595306396
1759864132800207000,9.30820703125,1.3527239561080933,1.6208745241165161,-1.4173674583435059
1759864132810247200,9.3182470703125,1.501164436340332,1.3431471586227417,-1.6280571222305298
1759864132830389000,9.338388916015624,1.6112977266311646,0.9600749015808105,-1.6304513216018677
1759864132840459800,9.348459716796874,1.50355863571167,0.7852981686592102,-1.482010841369629
1759864132850530600,9.358530517578124,1.3072341680526733,0.38307225704193115,-1.3958195447921753
1759864132870672100,9.378672119140624,1.37906014919281,-0.023942016065120697,-1.015141487121582
1759864132880773400,9.3887734375,1.2617442607879639,-0.12689268589019775,-0.8738836050033569
1759864132890813700,9.398813720703124,1.3407529592514038,-0.22505496442317963,-0.7852981686592102
1759864132900915000,9.4089150390625,1.2449848651885986,-0.44771572947502136,-0.6607996821403503
1759864132911016400,9.419016357421874,1.1013327836990356,-0.6607996821403503,-0.5171475410461426
1759864132921117700,9.42911767578125,0.849941611289978,-0.8858546018600464,-0.2944868206977844
1759864132931188500,9.4391884765625,0.629675030708313,-1.3287819623947144,-0.023942016065120697
1759864132951360500,9.459360595703124,0.6248866319656372,-1.5538369417190552,0.31603461503982544
1759864132981572900,9.48957275390625,0.4836287498474121,-1.2330138683319092,0.524330198764801
1759864132991674400,9.49967431640625,0.22744916379451752,-1.4772224426269531,0.8092401623725891
1759864133001745200,9.5097451171875,-0.181959331035614,-1.4700398445129395,1.381454348564148
1759864133011846400,9.519846435546874,-0.6177040338516235,-1.316810965538025,1.9081788063049316
1759864133021947600,9.52994775390625,-1.235408067703247,-0.6703764796257019,2.2601263523101807
1759864133031988000,9.539988037109374,-1.7525556087493896,0.16519992053508759,2.2649147510528564
1759864133052129500,9.560129638671874,-1.6400281190872192,0.6129156351089478,1.6950948238372803
1759864133072271000,9.58027099609375,-1.048660397529602,-0.1149216815829277,1.3766659498214722
1759864133082372600,9.59037255859375,-1.0821791887283325,-0.5363011956214905,1.5705963373184204
1759864133092443400,9.600443359375,-1.3407529592514038,-1.1013327836990356,1.7477672100067139
1759864133102483700,9.610483642578124,-1.7286136150360107,-1.2018892765045166,1.8746598958969116
1759864133112554500,9.620554443359374,-2.078166961669922,-0.8092401623725891,1.6543933153152466
1759864133122625300,9.630625244140624,-2.099714994430542,-0.19871874153614044,1.1994950771331787
1759864133132696000,9.640696044921874,-1.9393033981323242,0.4118026793003082,0.7158663272857666
1759864133183111200,9.691111083984374,-2.319981336593628,1.7836803197860718,0.47165772318840027
1759864133193182000,9.701181884765624,-2.293645143508911,2.0614075660705566,0.5219359993934631
1759864133203252700,9.711252685546874,-2.3535003662109375,2.070984363555908,0.5291185975074768
1759864133213293000,9.72129296875,-1.9967641830444336,2.1763293743133545,0.5267243981361389
1759864133223333000,9.7313330078125,-1.4317326545715332,2.188300371170044,0.45489832758903503
1759864133233434600,9.7414345703125,-0.9265560507774353,1.8483237028121948,0.38307225704193115
1759864133243505400,9.75150537109375,-0.42616790533065796,1.3551181554794312,0.3902548849582672
1759864133273809400,9.781809326171874,0.26815059781074524,1.1180921792984009,0.016759412363171577
1759864133283910700,9.79191064453125,0.5123591423034668,1.1516109704971313,-0.09576806426048279
1759864133294012000,9.802011962890624,0.5913678407669067,1.036689281463623,-0.12928688526153564
1759864133304113200,9.812113037109375,0.9983820915222168,1.039083480834961,-0.31842881441116333
1759864133314214700,9.822214599609374,1.3838485479354858,1.0342950820922852,-0.524330198764801
1759864133324285400,9.832285400390624,1.6903064250946045,0.7134721279144287,-0.6488286852836609
1759864133334356200,9.842356201171874,2.1284453868865967,0.29209262132644653,-0.7589619159698486
1759864133344457500,9.85245751953125,2.4396915435791016,0.23702596127986908,-0.8092401623725891
1759864133354558700,9.862558837890624,2.518700122833252,0.181959331035614,-0.8882488012313843
1759864133384771300,9.892771240234374,2.1308395862579346,0.5602431893348694,-0.7565677165985107
1759864133404913000,9.912912841796874,1.4867992401123047,0.7541735172271729,-0.8738836050033569
1759864133415014100,9.92301416015625,1.3192051649093628,0.6105214357376099,-0.7733271718025208
1759864133425115400,9.933115478515624,1.4939818382263184,0.5937620401382446,-0.7829039692878723
1759864133435217000,9.943216796875,1.5825673341751099,0.5602431893348694,-0.6847416758537292
1759864133445287700,9.95328759765625,1.4173674583435059,0.4812345504760742,-0.6272808313369751
1759864133455389000,9.963388916015624,1.3096283674240112,0.38546648621559143,-0.5770025849342346
1759864133475591400,9.98359130859375,0.6177040338516235,0.3663128614425659,-0.07422025501728058
1759864133485631700,9.9936318359375,0.4189853072166443,0.22505496442317963,0.36152446269989014
1759864133495733200,10.003733154296874,0.5363011956214905,-0.19871874153614044,0.7206547260284424
1759864133505804000,10.013803955078124,0.5434837937355042,-0.524330198764801,1.0223240852355957
1759864133515874800,10.023874755859374,0.38307225704193115,-0.8954314589500427,1.3215993642807007
1759864133525884400,10.033884521484374,0.05267243832349777,-1.0558429956436157,1.5203180313110352
1759864133535955200,10.043955078125,-0.2298433631658554,-1.115697979927063,1.7597382068634033
1759864133546026000,10.05402587890625,-0.49320554733276367,-1.216254472732544,1.7693150043487549
1759864133586309400,10.094309326171874,-0.6584054827690125,-1.7884687185287476,1.5873557329177856
1759864133606481400,10.1144814453125,0.05027823522686958,-1.9512743949890137,0.9169792532920837
1759864133616552200,10.12455224609375,0.14604631066322327,-2.073378562927246,1.0534487962722778
1759864133626623000,10.134623046875,-0.10295066982507706,-2.784456491470337,1.1851298809051514
1759864133636693800,10.14469384765625,-0.4189853072166443,-3.203441858291626,1.4867992401123047
1759864133646734000,10.154734130859374,-0.8164227604866028,-3.1483752727508545,1.501164436340332
1759864133656835300,10.16483544921875,-1.316810965538025,-2.3918075561523438,1.522712230682373
1759864133676946400,10.184946533203124,-1.9129672050476074,-0.8619126081466675,0.8092401623725891
1759864133686986800,10.19498681640625,-2.1284453868865967,-0.950498104095459,0.19632454216480255
1759864133697088000,10.205087890625,-2.1787235736846924,-1.2234370708465576,-0.45489832758903503
1759864133707159000,10.215158935546874,-2.382230758666992,-1.5203180313110352,-0.950498104095459
1759864133717199000,10.22519921875,-2.3511061668395996,-1.5514427423477173,-1.4413094520568848
1759864133727209000,10.235208984375,-1.8842366933822632,-1.4437036514282227,-2.011129379272461
1759864133737310200,10.245310302734374,-1.3503297567367554,-1.1827356815338135,-2.631227731704712
1759864133747411700,10.25541162109375,-0.7182605266571045,-0.811634361743927,-2.9089550971984863
1759864133787694800,10.29569482421875,0.20350714027881622,-0.38546648621559143,-0.8403648138046265
1759864133807775500,10.315775390625,0.26815059781074524,0.15322890877723694,-0.24660277366638184
1759864133817876700,10.325876708984374,0.1412578970193863,0.507570743560791,0.08619125932455063
1759864133827978000,10.33597802734375,0.2537853717803955,0.6344634294509888,-0.016759412363171577
1759864133838018300,10.346018310546874,0.4908113479614258,0.7350199222564697,-0.10773907601833344
1759864133848089000,10.356089111328124,0.7709329724311829,0.5339069962501526,-0.21547815203666687
1759864133858129400,10.36612939453125,1.115697979927063,0.42856210470199585,-0.3734954595565796
1759864133878240500,10.386240478515624,1.314416766166687,0.47884035110473633,-0.9097966551780701
1759864133908422400,10.41642236328125,0.8307880163192749,1.1516109704971313,-0.7230489253997803
1759864133928533500,10.436533447265624,1.3551181554794312,0.7852981686592102,-0.45250412821769714
1759864133938634800,10.446634765625,1.625662922859192,0.4884171485900879,-0.33039984107017517
1759864133948736000,10.456736083984374,1.745373010635376,0.3064578175544739,-0.19153612852096558
1759864133958776300,10.4667763671875,1.7597382068634033,0.1843535304069519,0.05746084079146385
1759864133999090200,10.507090087890624,1.5442601442337036,0.15322890877723694,0.42856210470199585
1759864134009130200,10.517130126953125,1.558625340461731,-0.0071826050989329815,0.4620809257030487
1759864134019231700,10.527231689453124,1.5682021379470825,-0.2753331959247589,0.507570743560791
1759864134029302500,10.537302490234374,1.4915876388549805,-0.629675030708313,0.608127236366272
1759864134039373300,10.547373291015624,1.2473790645599365,-0.8954314589500427,0.8930372595787048
1759864134049444000,10.557444091796874,0.9241618514060974,-1.0007762908935547,0.8834604024887085
1759864134059545300,10.56754541015625,0.545877993106842,-1.0079588890075684,0.950498104095459
1759864134079687000,10.58768701171875,-0.40462008118629456,-1.381454348564148,1.094150185585022
1759864134099859200,10.607859130859374,-1.4173674583435059,-1.2545616626739502,1.1827356815338135
1759864134109899500,10.6178994140625,-1.5083470344543457,-1.1300631761550903,1.0438719987869263
1759864134119970300,10.62797021484375,-1.359906554222107,-0.9169792532920837,0.7613561153411865
1759864134130041000,10.638041015625,-0.9528923034667969,-0.751779317855835,0.5171475410461426
1759864134140081200,10.6480810546875,-0.6224924325942993,-0.3734954595565796,0.2561795711517334
1759864134150152200,10.658152099609374,-0.4213795065879822,-0.304063618183136,0.16759411990642548
1759864134160223000,10.668222900390624,-0.17477671802043915,-0.5913678407669067,0.3687070608139038
1759864134180334000,10.688333984375,-0.3447650372982025,-1.0797849893569946,1.0079588890075684
1759864134190404900,10.69840478515625,-0.9409212470054626,-1.1516109704971313,1.1252747774124146
1759864134200506000,10.708506103515624,-1.7812861204147339,-0.9193734526634216,0.9696516990661621
1759864134210546400,10.71854638671875,-2.205059766769409,-0.27054479718208313,1.070208191871643
1759864134220647700,10.728647705078124,-2.434903144836426,0.13407529890537262,1.2713210582733154
1759864134230749000,10.7387490234375,-2.7054479122161865,0.14844051003456116,1.455674648284912
1759864134240789200,10.748789306640624,-2.918531894683838,0.10534487664699554,1.2306196689605713
1759864134250860000,10.758860107421874,-3.3470940589904785,0.6033388376235962,0.9457096457481384
1759864134260961300,10.768961181640625,-3.6176388263702393,1.53707754611969,0.7469909191131592
1759864134271001600,10.779001708984374,-3.6559460163116455,2.3319525718688965,0.3734954595565796
1759864134301214200,10.809214111328124,-2.719813108444214,1.8555063009262085,-0.023942016065120697
1759864134311285000,10.819284912109374,-1.9560627937316895,1.015141487121582,0.0454898327589035
1759864134321325000,10.829324951171875,-1.2330138683319092,0.6440402865409851,0.28730419278144836
1759864134331396000,10.83939599609375,-0.7254431247711182,0.7015010714530945,0.2968810200691223
1759864134341497300,10.849497314453124,-0.13407529890537262,0.9983820915222168,0.12210428714752197
1759864134351568100,10.859568115234374,0.35673606395721436,1.1540051698684692,-0.21547815203666687
1759864134361639000,10.869638916015624,0.993593692779541,1.1444283723831177,-0.5530605912208557
1759864134371679200,10.87967919921875,1.5466543436050415,0.9481038451194763,-0.6919242739677429
1759864134411992800,10.919992919921874,2.03507137298584,0.31603461503982544,-0.8427590131759644
1759864134422063600,10.930063720703124,2.094926595687866,0.395043283700943,-0.7589619159698486
1759864134442174700,10.9501748046875,2.140416383743286,1.2856862545013428,-0.8858546018600464
1759864134452276200,10.960276123046874,1.9919757843017578,1.522712230682373,-1.0223240852355957
1759864134462347000,10.970346923828124,1.6735470294952393,1.5298948287963867,-1.0558429956436157
1759864134472417800,10.980417724609374,1.3455413579940796,1.37906014919281,-0.9864110946655273
1759864134482488600,10.990488525390624,0.8738836050033569,1.161187767982483,-0.993593692779541
1759864134502630100,11.010630126953124,0.5937620401382446,0.7613561153411865,-0.8978256583213806
1759864134512701000,11.020700927734374,0.8690952062606812,0.6129156351089478,-0.7805097699165344
1759864134522771700,11.030771728515624,1.3239935636520386,0.33518823981285095,-0.667982280254364
1759864134542943700,11.05094384765625,1.5705963373184204,-0.21787235140800476,0.14844051003456116
1759864134553014500,11.0610146484375,1.2856862545013428,-0.33997663855552673,0.8523358106613159
1759864134563085300,11.071085205078125,0.7924807667732239,-0.28730419278144836,1.3072341680526733
1759864134573125600,11.081125732421874,0.38067805767059326,-0.3974374830722809,1.7477672100067139
1759864134583227100,11.09122705078125,-0.021547814831137657,-0.629675030708313,1.9776105880737305
1759864134613439500,11.121439453125,-0.8571242094039917,-1.1444283723831177,2.389413356781006
1759864134623510300,11.13151025390625,-1.3287819623947144,-1.0582371950149536,2.868253707885742
1759864134633581000,11.1415810546875,-1.7932571172714233,-1.2210428714752197,3.1076738834381104
1759864134643682300,11.151682373046874,-2.1356279850006104,-1.482010841369629,3.1268274784088135
1759864134653753000,11.161753173828124,-2.1715409755706787,-1.6974890232086182,2.896984100341797
1759864134663854600,11.1718544921875,-2.1499931812286377,-1.501164436340332,2.8155810832977295
1759864134673925400,11.18192529296875,-2.1475989818573,-1.1468225717544556,2.801215887069702
1759864134683996200,11.19199609375,-2.3127987384796143,-0.9026140570640564,2.9544448852539062
1759864134714239000,11.222239013671874,-2.097320795059204,-0.7422025203704834,1.7262194156646729
1759864134724309800,11.232309814453124,-1.5418659448623657,-0.1843535304069519,0.8259995579719543
1759864134734380500,11.242380615234374,-1.0630255937576294,0.0071826050989329815,0.07422025501728058
1759864134744420900,11.2524208984375,-0.9313444495201111,-0.2106897532939911,-0.4692635238170624
1759864134754491600,11.26249169921875,-1.2665326595306396,-0.5363011956214905,-0.4812345504760742
1759864134764593000,11.272593017578124,-1.647210717201233,-0.8427590131759644,-0.15562310814857483
1759864134774694400,11.2826943359375,-1.7932571172714233,-1.2832920551300049,-0.05746084079146385
1759864134784765200,11.29276513671875,-1.9273324012756348,-1.2976573705673218,-0.33518823981285095
1759864134814947000,11.322947021484374,-2.4157495498657227,0.5147533416748047,-1.4628572463989258
1759864134824987400,11.3329873046875,-2.070984363555908,1.070208191871643,-1.9177556037902832
1759864134835027500,11.34302734375,-1.6184803247451782,0.8092401623725891,-2.0614075660705566
1759864134845067800,11.35306787109375,-1.2856862545013428,0.24420857429504395,-1.8100165128707886
1759864134855169300,11.363169189453124,-0.9169792532920837,-0.1867477297782898,-1.436521053314209
1759864134865270500,11.3732705078125,-0.5051765441894531,-0.0933738648891449,-1.256955862045288
1759864134875310800,11.383310791015624,0.13407529890537262,0.3519476354122162,-1.1061211824417114
1759864134885412000,11.393412109375,0.7254431247711182,0.8810662031173706,-1.091755986213684
1759864134895513300,11.403513427734374,1.1851298809051514,1.2641384601593018,-1.1061211824417114
1759864134905553700,11.4135537109375,1.4221558570861816,1.5514427423477173,-1.0582371950149536
1759864134925787000,11.433786865234374,1.601720929145813,1.5658079385757446,-0.7948749661445618
1759864134935888100,11.44388818359375,1.6136919260025024,1.2761094570159912,-0.6488286852836609
1759864134945928400,11.453928466796874,1.8626888990402222,0.790086567401886,-0.6655880808830261
1759864134956029700,11.46402978515625,2.0254945755004883,0.667982280254364,-0.6631938815116882
1759864134966100500,11.4741005859375,2.056619167327881,0.6727706789970398,-0.6775590777397156
1759864134976140800,11.484140869140624,1.9823989868164062,0.6751648783683777,-0.6009446382522583
1759864135006383900,11.5143837890625,1.601720929145813,0.28730419278144836,-0.40701428055763245
1759864135016424000,11.524423828125,1.580173134803772,0.031124621629714966,-0.35434186458587646
1759864135026495000,11.534494873046874,1.5059528350830078,-0.13407529890537262,-0.37828385829925537
1759864135036596200,11.54459619140625,1.3287819623947144,-0.36152446269989014,-0.4165911078453064
1759864135046636500,11.554636474609374,1.3000515699386597,-0.4572925269603729,-0.4908113479614258
1759864135056707300,11.564707275390624,1.2832920551300049,-0.4118026793003082,-0.43095630407333374
1759864135066808600,11.57480859375,1.2761094570159912,-0.4381389021873474,-0.3998316824436188
1759864135076879400,11.58487939453125,1.3311761617660522,-0.5626373887062073,-0.33758243918418884
1759864135086858500,11.5948583984375,1.3048399686813354,-0.6392518281936646,-0.14365209639072418
1759864135096960000,11.6049599609375,1.2401964664459229,-0.8044517636299133,0.08858546614646912
1759864135127142000,11.635141845703124,0.6584054827690125,-1.213860273361206,0.586579442024231
1759864135137243100,11.6452431640625,0.44771572947502136,-1.5394717454910278,0.7493851184844971
1759864135167486000,11.67548583984375,-1.5490485429763794,-1.4053963422775269,1.6089035272598267
1759864135177557000,11.685556884765624,-2.032677173614502,-0.9720458984375,1.4173674583435059
1759864135187627800,11.695627685546874,-2.3726539611816406,-0.6799532771110535,1.094150185585022
1759864135197729000,11.70572900390625,-1.8818424940109253,-0.2753331959247589,0.8619126081466675
1759864135227849700,11.735849609375,-1.4317326545715332,-0.9959878921508789,2.1045033931732178
1759864135237951200,11.745951171875,-1.8794482946395874,-1.4221558570861816,2.346317768096924
1759864135248022000,11.75602197265625,-2.387019157409668,-0.9169792532920837,2.5043349266052246
1759864135258062300,11.766062255859374,-2.782062292098999,-0.47884035110473633,2.403778553009033
1759864135268133000,11.776133056640624,-2.8203697204589844,-0.3447650372982025,2.075772762298584
1759864135278234400,11.786234375,-2.2385785579681396,0.07661445438861847,1.4748282432556152
1759864135288244200,11.796244140625,-2.231395959854126,0.08379705995321274,1.4915876388549805
1759864135298345500,11.806345458984374,-1.53707754611969,0.5602431893348694,0.9289502501487732
1759864135318517500,11.826517578125,-1.2401964664459229,1.359906554222107,0.5410895943641663
1759864135328588300,11.83658837890625,-1.3886369466781616,1.1228805780410767,0.9289502501487732
1759864135338689800,11.846689697265624,-1.623268723487854,0.7948749661445618,1.158793568611145
1759864135348760600,11.856760498046874,-1.4844050407409668,0.9792284965515137,1.0534487962722778
1759864135358861800,11.86686181640625,-1.2401964664459229,1.139639973640442,0.6823474764823914
1759864135368902100,11.876902099609374,-0.7829039692878723,1.4197616577148438,0.2513911724090576
1759864135379003400,11.88700341796875,-0.31603461503982544,1.8626888990402222,0.016759412363171577
1759864135389043700,11.897043701171874,-0.18914192914962769,1.968033790588379,-0.038307227194309235
1759864135399145000,11.90714501953125,-0.06464344263076782,1.7190368175506592,-0.009576806798577309
1759864135429357300,11.937357421875,0.9600749015808105,1.1204863786697388,-0.40701428055763245
1759864135449468400,11.957468505859374,1.6903064250946045,1.2114660739898682,-0.5650315880775452
1759864135459570000,11.96756982421875,1.9393033981323242,1.0678139925003052,-0.45010992884635925
1759864135469671200,11.977671142578124,2.166752576828003,0.9768342971801758,-0.4165911078453064
1759864135479742000,11.987741943359374,2.22660756111145,0.8379706144332886,-0.4596867263317108
1759864135489812700,11.997812744140624,2.31758713722229,0.7733271718025208,-0.569819986820221
1759864135499883500,12.007883544921874,2.0039467811584473,0.6440402865409851,-0.629675030708313
1759864135520055600,12.0280556640625,1.6927006244659424,0.3447650372982025,-0.6607996821403503
1759864135530126300,12.038126220703125,1.4532804489135742,0.27054479718208313,-0.6631938815116882
1759864135540197000,12.048197021484375,1.1228805780410767,0.33997663855552673,-0.7541735172271729
1759864135550268200,12.05826806640625,0.6751648783683777,0.4213795065879822,-0.6440402865409851
1759864135560339000,12.0683388671875,0.4118026793003082,0.3423708379268646,-0.4381389021873474
1759864135570409700,12.07840966796875,0.3471592366695404,0.07182604819536209,-0.16759411990642548
1759864135580480500,12.08848046875,0.2082955539226532,-0.11252748221158981,0.05985504388809204
1759864135590520800,12.098520751953124,0.24181437492370605,-0.17238251864910126,0.28969839215278625
1759864135600622000,12.1086220703125,0.43335050344467163,-0.011971008032560349,0.3423708379268646
1759864135620763600,12.128763671875,0.8307880163192749,0.06224924325942993,0.3998316824436188
1759864135650915000,12.1589150390625,0.8475474119186401,-0.15083470940589905,0.7996633648872375
1759864135661016300,12.169016357421874,0.646434485912323,-0.08140286058187485,1.0462661981582642
1759864135671087000,12.179087158203124,0.5339069962501526,-0.3280056416988373,1.1037269830703735
1759864135681188400,12.189188232421875,0.5554547905921936,-0.7015010714530945,1.094150185585022
1759864135691259100,12.199259033203125,0.395043283700943,-0.9600749015808105,1.0462661981582642
1759864135701330200,12.209330078125,0.08140286058187485,-1.0103530883789062,1.1109095811843872
1759864135731573000,12.239572998046874,-0.7613561153411865,-1.194706678390503,1.5514427423477173
1759864135741643800,12.249643798828124,-1.1540051698684692,-1.5442601442337036,1.7262194156646729
1759864135751714600,12.259714599609374,-1.4867992401123047,-1.900996208190918,1.9273324012756348
1759864135761815800,12.26981591796875,-1.9560627937316895,-2.3702597618103027,2.1284453868865967
1759864135771886600,12.279886474609375,-2.492363929748535,-2.6192567348480225,2.1978771686553955
1759864135781988000,12.289988037109374,-3.0310592651367188,-2.3918075561523438,1.9105730056762695
1759864135792059000,12.300058837890624,-3.00711727142334,-2.410961151123047,1.9129672050476074
1759864135802129700,12.310129638671874,-3.2752678394317627,-1.702277421951294,1.2689268589019775
1759864135832372500,12.34037255859375,-1.723825216293335,-1.7812861204147339,-0.7326257228851318
1759864135862584800,12.370584716796875,-2.1787235736846924,-2.011129379272461,-0.7948749661445618
1759864135872655600,12.380655517578125,-2.209848165512085,-1.1324573755264282,-0.6871358752250671
1759864135882726700,12.3907265625,-1.778891921043396,-0.5770025849342346,-1.0342950820922852
1759864135892797400,12.40079736328125,-1.3024457693099976,-0.6392518281936646,-1.580173134803772
1759864135902898700,12.410898681640624,-0.706289529800415,-0.5602431893348694,-2.121262788772583
1759864135912969500,12.420969482421874,-0.2777273952960968,-0.09816227108240128,-2.382230758666992
1759864135943212300,12.45121240234375,0.5913678407669067,0.12928688526153564,-1.7310078144073486
1759864135963354000,12.47135400390625,0.9433154463768005,0.21308395266532898,-1.1659762859344482
1759864135973394200,12.481394287109374,0.9385270476341248,0.608127236366272,-1.072602391242981
1759864135983465000,12.49146484375,1.0295066833496094,0.9768342971801758,-0.8954314589500427
1759864135993535700,12.50153564453125,1.2090718746185303,1.1085153818130493,-0.9409212470054626
1759864136003637200,12.51163720703125,1.3527239561080933,1.0678139925003052,-0.9983820915222168
1759864136013646800,12.521646728515625,1.534683346748352,0.8738836050033569,-1.0223240852355957
1759864136064001000,12.5720009765625,1.6543933153152466,0.31124621629714966,-0.11252748221158981
1759864136074071800,12.58207177734375,1.5705963373184204,0.2298433631658554,-0.07661445438861847
1759864136084112100,12.592112060546874,1.5753847360610962,0.20111294090747833,-0.06703764945268631
1759864136094213400,12.60221337890625,1.6687586307525635,0.31603461503982544,-0.026336219161748886
1759864136114385400,12.622385498046874,1.4437036514282227,-0.2106897532939911,0.29209262132644653
1759864136124456200,12.632456298828124,1.479616641998291,-0.629675030708313,0.45250412821769714
1759864136134496500,12.64249658203125,1.5059528350830078,-0.7541735172271729,0.5410895943641663
1759864136154607600,12.662607666015624,1.0271124839782715,-0.706289529800415,0.4118026793003082
1759864136164678400,12.672678466796874,0.871489405632019,-0.7805097699165344,0.272938996553421
1759864136174749200,12.682749267578124,0.8164227604866028,-0.9409212470054626,0.3974374830722809
1759864136184789500,12.69278955078125,0.7469909191131592,-1.1851298809051514,0.4596867263317108
1759864136194860300,12.7028603515625,0.6655880808830261,-1.2737152576446533,0.5793967843055725
1759864136204931000,12.71293115234375,0.3902548849582672,-1.1085153818130493,0.768538773059845
1759864136215001900,12.723001953125,0.023942016065120697,-1.1635819673538208,0.933738648891449
1759864136225072600,12.73307275390625,-0.19393034279346466,-1.4987702369689941,1.0821791887283325
1759864136235143400,12.743143310546875,-0.48602294921875,-1.920149803161621,1.316810965538025
1759864136265417000,12.7734169921875,-2.0614075660705566,-1.381454348564148,1.3551181554794312
1759864136275457300,12.783457275390624,-2.535459518432617,-0.7876923680305481,1.2737152576446533
1759864136285558500,12.79355859375,-2.6575639247894287,-0.6919242739677429,1.2042834758758545
1759864136295598800,12.803598876953124,-2.6815059185028076,-0.6775590777397156,1.2018892765045166
1759864136305669600,12.813669677734374,-2.6431987285614014,-1.015141487121582,1.2425906658172607
1759864136315740400,12.823740478515624,-2.6886885166168213,-1.3742717504501343,1.2306196689605713
1759864136325811200,12.833811279296874,-3.227383852005005,-1.4532804489135742,1.2282254695892334
1759864136335912700,12.84391259765625,-3.732560396194458,-1.158793568611145,1.3072341680526733
1759864136376287200,12.884287353515624,-2.980781078338623,0.9576807022094727,-0.3902548849582672
1759864136386388700,12.894388671875,-2.47560453414917,0.8906430602073669,-0.31364041566848755
1759864136396459500,12.90445947265625,-1.9369091987609863,0.8164227604866028,-0.0454898327589035
1759864136406530300,12.9145302734375,-1.5442601442337036,1.0630255937576294,0.17956513166427612
1759864136416631600,12.924631591796874,-1.2186486721038818,1.5897499322891235,0.3902548849582672
1759864136436773000,12.944773193359374,-0.8044517636299133,2.3798365592956543,0.45250412821769714
1759864136467016200,12.97501611328125,0.2346317619085312,1.8555063009262085,-0.18914192914962769
1759864136497289500,13.00528955078125,1.1899182796478271,1.8602946996688843,-1.1109095811843872
1759864136507360300,13.0153603515625,1.1061211824417114,1.8842366933822632,-1.316810965538025
1759864136517461800,13.025461669921874,0.8571242094039917,1.8507179021835327,-1.41257905960083
1759864136527532500,13.035532470703124,0.689530074596405,1.7741034030914307,-1.3072341680526733
1759864136537603300,13.045603271484374,0.667982280254364,1.6208745241165161,-1.161187767982483
1759864136547704600,13.05570458984375,0.811634361743927,1.4197616577148438,-1.192312479019165
1759864136598119700,13.10611962890625,1.4987702369689941,0.8451532125473022,-1.2856862545013428
1759864136628332000,13.13633203125,1.0271124839782715,0.7541735172271729,-0.6033388376235962
1759864136638372400,13.146372314453124,0.7852981686592102,0.7015010714530945,-0.28969839215278625
1759864136648382000,13.1563818359375,0.8164227604866028,0.7086837291717529,-0.08379705995321274
1759864136658483500,13.1664833984375,1.0654197931289673,0.871489405632019,0.05985504388809204
1759864136688665300,13.196665283203124,1.0247182846069336,-0.5195417404174805,0.7709329724311829
1759864136698766600,13.2067666015625,0.933738648891449,-1.0989385843276978,1.2761094570159912
1759864136708867800,13.216867919921874,0.5027823448181152,-1.2832920551300049,1.7357962131500244
1759864136718969300,13.22696923828125,0.17956513166427612,-1.0055646896362305,1.8339585065841675
1759864136729009400,13.237009521484374,-0.30885201692581177,-0.608127236366272,1.9345149993896484
1759864136739111000,13.24711083984375,-0.7445967197418213,-0.49559974670410156,1.9991583824157715
1759864136749212200,13.257212158203124,-0.9097966551780701,-0.8954314589500427,1.9560627937316895
1759864136789495300,13.297495361328124,-1.5107412338256836,-1.6400281190872192,1.5322890281677246
1759864136799566000,13.307566162109374,-1.7405846118927002,-1.414973258972168,1.2880805730819702
1759864136809576000,13.317575927734374,-1.7812861204147339,-1.4053963422775269,1.2617442607879639
1759864136819707600,13.327707763671874,-1.8770540952682495,-1.115697979927063,0.9983820915222168
1759864136829748000,13.337748046875,-1.6424223184585571,-0.828393816947937,0.5746083855628967
1759864136839818800,13.34781884765625,-1.525106430053711,-0.49320554733276367,0.44532153010368347
1759864136849889500,13.3578896484375,-1.5083470344543457,-0.7709329724311829,0.7086837291717529
1759864136859991000,13.367990966796874,-1.3623007535934448,-1.4532804489135742,1.015141487121582
1759864136890233900,13.39823388671875,-1.1899182796478271,-0.7613561153411865,0.6440402865409851
1759864136900304600,13.4083046875,-1.0342950820922852,-0.12449848651885986,-0.035913024097681046
1759864136910406000,13.418406005859374,-1.0845733880996704,0.5147533416748047,-0.7613561153411865
1759864136920476700,13.4284765625,-1.0678139925003052,0.6368576288223267,-1.0295066833496094
1759864136930547700,13.438547607421874,-1.0606313943862915,-0.13168109953403473,-0.950498104095459
1759864136940649000,13.44864892578125,-1.0127472877502441,-1.0247182846069336,-0.7469909191131592
1759864136950750200,13.458750244140624,-1.235408067703247,-1.3407529592514038,-0.6200982332229614
1759864136960851500,13.4688515625,-1.5945383310317993,-1.45806884765625,-0.629675030708313
1759864136991094500,13.499094482421874,-2.279279947280884,0.20111294090747833,-1.6927006244659424
1759864137001165300,13.509165283203124,-2.03507137298584,-0.031124621629714966,-1.9584569931030273
1759864137011236000,13.519236083984374,-1.6759412288665771,-0.40940847992897034,-1.8962076902389526
1759864137021337300,13.52933740234375,-1.2330138683319092,-0.5578489899635315,-1.6903064250946045
1759864137031377700,13.539377685546874,-0.8810662031173706,-0.608127236366272,-1.3024457693099976
1759864137041479000,13.54947900390625,-0.6967126727104187,-0.40222588181495667,-1.1013327836990356
1759864137051580400,13.559580322265624,-0.44532153010368347,-0.13407529890537262,-0.9265560507774353
1759864137061651200,13.569651123046874,0.040701430290937424,0.009576806798577309,-0.849941611289978
1759864137091863600,13.599863525390624,1.2665326595306396,0.3447650372982025,-0.9888052940368652
1759864137101964800,13.60996484375,1.403002142906189,0.689530074596405,-1.048660397529602
1759864137112035600,13.62003564453125,1.482010841369629,1.0462661981582642,-1.1013327836990356
1759864137122106400,13.6301064453125,1.50355863571167,1.1659762859344482,-1.1659762859344482
1759864137132207900,13.640207763671874,1.5394717454910278,1.0965443849563599,-1.0558429956436157
1759864137142248000,13.650248046875,1.6089035272598267,0.8595184087753296,-1.072602391242981
1759864137152318700,13.660318603515625,1.745373010635376,0.5985504388809204,-0.950498104095459
1759864137162420200,13.670420166015624,1.889025092124939,0.608127236366272,-0.8834604024887085
1759864137192563000,13.70056298828125,2.123656988143921,0.4165911078453064,-0.31603461503982544
1759864137202634000,13.710634033203124,1.9560627937316895,0.1867477297782898,-0.021547814831137657
1759864137212674000,13.720674072265625,1.7046716213226318,0.14365209639072418,0.2944868206977844
1759864137222775600,13.730775634765624,1.5897499322891235,0.17956513166427612,0.5291185975074768
1759864137232846300,13.740846435546874,1.4484920501708984,0.15801730751991272,0.7134721279144287
1759864137242947600,13.750947509765625,1.3551181554794312,0.11252748221158981,0.9576807022094727
1759864137253018400,13.761018310546875,1.314416766166687,-0.13407529890537262,1.1420341730117798
1759864137263058700,13.77105859375,1.2689268589019775,-0.3974374830722809,1.1420341730117798
1759864137293301500,13.801301513671875,0.5937620401382446,-0.5770025849342346,1.1492167711257935
1759864137313443000,13.821443115234375,-0.12449848651885986,-1.5275006294250488,1.316810965538025
1759864137323514000,13.83151416015625,-0.2322375625371933,-1.4891934394836426,1.2521674633026123
1759864137343625000,13.851625,-1.137245774269104,-1.7501614093780518,1.6639702320098877
1759864137353696000,13.861696044921874,-1.4484920501708984,-1.1827356815338135,1.5107412338256836
1759864137363766800,13.871766845703124,-1.3934253454208374,-0.6009446382522583,1.4389152526855469
1759864137393979100,13.901979248046874,-0.9888052940368652,-0.8068459630012512,1.4484920501708984
1759864137404080400,13.912080322265625,-1.5490485429763794,-1.4676456451416016,1.7477672100067139
1759864137414120700,13.92212060546875,-2.252943754196167,-2.013523578643799,1.8387469053268433
1759864137424191500,13.93219140625,-3.313575267791748,-1.8339585065841675,1.9345149993896484
1759864137434292700,13.942292724609375,-3.885789394378662,-1.05105459690094,1.4700398445129395
1759864137444333000,13.9523330078125,-4.218583583831787,-0.05267243832349777,0.849941611289978
1759864137454373400,13.962373291015625,-3.8953661918640137,0.6512228846549988,0.31603461503982544
1759864137464444200,13.972444091796875,-3.620033025741577,0.7182605266571045,0.08140286058187485
1759864137474515000,13.982514892578125,-3.0190882682800293,0.5482721924781799,-0.05746084079146385
1759864137514828800,14.022828857421874,-3.0190882682800293,2.3918075561523438,-0.1867477297782898
1759864137534939600,14.042939697265625,-1.599326729774475,2.5905263423919678,-0.4189853072166443
1759864137545041200,14.053041259765624,-0.993593692779541,2.5019407272338867,-0.4357447028160095
1759864137555112000,14.06311181640625,-0.5386953949928284,2.051830768585205,-0.30885201692581177
1759864137585354800,14.093354736328125,0.7374141216278076,0.7733271718025208,-0.3902548849582672
1759864137615536600,14.12353662109375,1.3263877630233765,0.9624691009521484,-0.8786720037460327
1759864137625607400,14.133607421875,1.7142484188079834,0.5985504388809204,-1.0319008827209473
1759864137635709000,14.143708984375,1.8626888990402222,0.181959331035614,-1.039083480834961
1759864137645779700,14.15377978515625,1.9105730056762695,-0.17956513166427612,-1.0031704902648926
1759864137655881000,14.163880859375,1.8986018896102905,-0.2992752194404602,-0.811634361743927
1759864137665951700,14.17395166015625,1.8938134908676147,-0.1867477297782898,-0.569819986820221
1759864137676053000,14.184052978515625,2.006340980529785,0.009576806798577309,-0.5003881454467773
1759864137716336400,14.22433642578125,1.5155296325683594,0.8307880163192749,-0.7422025203704834
1759864137726437600,14.234437744140624,1.4173674583435059,0.7445967197418213,-0.667982280254364
1759864137736478000,14.24447802734375,1.237802267074585,0.5171475410461426,-0.4692635238170624
1759864137746548700,14.254548828125,1.0654197931289673,0.304063618183136,-0.13168109953403473
1759864137766720800,14.274720703125,0.8858546018600464,0.26096799969673157,0.27054479718208313
1759864137776791600,14.28479150390625,0.8523358106613159,0.4908113479614258,0.4213795065879822
1759864137786832000,14.294831787109375,0.7805097699165344,0.47405192255973816,0.545877993106842
1759864137806973400,14.314973388671875,0.7445967197418213,0.2322375625371933,1.0558429956436157
1759864137817044200,14.325044189453125,0.7110779285430908,0.2322375625371933,1.0199298858642578
1759864137827145500,14.3351455078125,0.47644615173339844,-0.15322890877723694,1.2976573705673218
1759864137837185800,14.345185791015625,0.16759411990642548,-0.6607996821403503,1.5873557329177856
1759864137847287300,14.355287353515624,-0.15562310814857483,-1.1037269830703735,1.6376339197158813
1759864137857388500,14.365388427734375,-0.3423708379268646,-1.3934253454208374,1.6184803247451782
1759864137867459300,14.375459228515625,-0.5363011956214905,-1.460463047027588,1.6879122257232666
1759864137877530000,14.385530029296875,-0.5889736413955688,-1.280897855758667,1.6519991159439087
1759864137917843700,14.42584375,-0.9720458984375,-1.2066776752471924,1.237802267074585
1759864137927914800,14.435914794921874,-1.1252747774124146,-1.6663644313812256,1.534683346748352
1759864137938016000,14.44601611328125,-1.5107412338256836,-1.8052281141281128,2.0877439975738525
1759864137948117200,14.4561171875,-2.1116859912872314,-1.9345149993896484,2.4684219360351562
1759864137958188000,14.46618798828125,-2.6575639247894287,-1.8794482946395874,2.0829553604125977
1759864137968258800,14.4762587890625,-2.8658595085144043,-1.0869675874710083,1.192312479019165
1759864137978329600,14.48632958984375,-2.6862943172454834,-0.14365209639072418,0.12449848651885986
1759864138018674000,14.526673828125,-1.2306196689605713,-1.5418659448623657,-1.5658079385757446
1759864138038846000,14.546845947265625,-1.0678139925003052,-0.811634361743927,-1.2641384601593018
1759864138048916700,14.556916748046875,-1.1180921792984009,0.009576806798577309,-1.4293384552001953
1759864138058957000,14.56695703125,-1.1085153818130493,0.3926490843296051,-1.5921441316604614
1759864138069058300,14.577058349609375,-0.9744400978088379,0.44771572947502136,-1.3527239561080933
1759864138079129300,14.58712939453125,-0.6009446382522583,0.09816227108240128,-0.9409212470054626
1759864138089169400,14.59716943359375,-0.4668693244457245,-0.6751648783683777,-0.5434837937355042
1759864138099240200,14.607240234375,-0.3208230137825012,-1.1516109704971313,-0.27054479718208313
1759864138119382000,14.627382080078124,-0.3232172429561615,-0.8044517636299133,-0.33279404044151306
1759864138139554000,14.647553955078125,-0.5171475410461426,0.014365210197865963,-0.49320554733276367
1759864138149624800,14.657624755859375,-0.2825157940387726,0.21787235140800476,-0.33997663855552673
1759864138159695600,14.667695556640625,-0.10055647045373917,0.31364041566848755,-0.272938996553421
1759864138169705500,14.67770556640625,0.22744916379451752,0.30885201692581177,-0.29209262132644653
1759864138179806700,14.687806640625,0.646434485912323,0.5386953949928284,-0.4884171485900879
1759864138189877500,14.69787744140625,1.01753568649292,0.7374141216278076,-0.5219359993934631
1759864138199917800,14.707917724609375,1.41257905960083,0.7709329724311829,-0.47884035110473633
1759864138230160600,14.73816064453125,2.0207061767578125,0.849941611289978,-0.3902548849582672
1759864138240231400,14.7482314453125,2.1571757793426514,0.9145850539207458,-0.3758896589279175
1759864138260373200,14.768373291015624,2.2888567447662354,0.7781155705451965,-0.5602431893348694
1759864138270413300,14.778413330078125,2.360682964324951,0.6105214357376099,-0.5554547905921936
1759864138280484000,14.788484130859375,2.580949544906616,0.40701428055763245,-0.5937620401382446
1759864138290524400,14.7985244140625,2.6408045291900635,0.18914192914962769,-0.44771572947502136
1759864138310696700,14.81869677734375,2.1954829692840576,-0.0933738648891449,0.21547815203666687
1759864138320706300,14.828706298828125,2.169146776199341,-0.07900865375995636,0.19871874153614044
1759864138330746600,14.83874658203125,1.7046716213226318,-0.5410895943641663,0.6416460275650024
1759864138340847900,14.848847900390625,1.5634137392044067,-0.8475474119186401,1.1037269830703735
1759864138350918700,14.858918701171875,0.912190854549408,-1.036689281463623,1.4963760375976562
1759864138361020200,14.869020263671874,0.395043283700943,-1.0342950820922852,1.7908629179000854
1759864138371091000,14.879091064453124,-0.08140286058187485,-1.0079588890075684,1.8315643072128296
1759864138381192200,14.889192138671875,-0.667982280254364,-1.0558429956436157,1.6903064250946045
1759864138391263000,14.899262939453125,-0.9528923034667969,-1.1994950771331787,1.5753847360610962
1759864138401333800,14.909333740234375,-1.2306196689605713,-0.950498104095459,1.3503297567367554
1759864138411404500,14.919404541015625,-1.4221558570861816,-0.44771572947502136,0.9792284965515137
1759864138461758700,14.9697587890625,-0.4644751250743866,-0.9002198576927185,1.2018892765045166
1759864138481930800,14.9899306640625,-0.05267243832349777,-0.5003881454467773,1.1252747774124146
1759864138492032000,15.000031982421875,-0.181959331035614,-0.35434186458587646,1.2018892765045166
1759864138502102800,15.010102783203125,-0.5746083855628967,-0.22266076505184174,1.3048399686813354
1759864138522275000,15.030275146484374,-1.0534487962722778,-0.021547814831137657,1.3239935636520386
1759864138532345900,15.040345947265624,-1.1300631761550903,-0.6033388376235962,1.1300631761550903
1759864138542447000,15.050447021484375,-1.3742717504501343,-0.8355764150619507,0.8451532125473022
1759864138552518000,15.060517822265625,-1.702277421951294,-0.7948749661445618,0.6584054827690125
1759864138562619100,15.070619140625,-1.8770540952682495,-0.4644751250743866,0.44771572947502136
1759864138572720600,15.080720703125,-1.8315643072128296,-0.22744916379451752,0.15562310814857483
1759864138582791400,15.09079150390625,-1.821987509727478,-0.06464344263076782,-0.1364694982767105
1759864138592831700,15.100831787109374,-1.7334020137786865,0.33039984107017517,-0.2944868206977844
1759864138602933000,15.11093310546875,-1.647210717201233,0.8379706144332886,-0.4908113479614258
1759864138633175800,15.14117578125,-1.1492167711257935,1.9488801956176758,0.090979665517807
1759864138643277000,15.151277099609375,-0.9241618514060974,1.3718775510787964,0.3998316824436188
1759864138653317400,15.1613173828125,-0.6823474764823914,0.8451532125473022,0.5386953949928284
1759864138663388200,15.17138818359375,-0.42377370595932007,0.7852981686592102,0.43335050344467163
1759864138673489700,15.18148974609375,-0.05985504388809204,1.3192051649093628,0.22744916379451752
1759864138683560400,15.191560546875,0.24420857429504395,1.6424223184585571,-0.09576806426048279
1759864138693631200,15.20163134765625,0.5171475410461426,1.5682021379470825,-0.24899697303771973
1759864138703732500,15.211732421875,1.0342950820922852,1.577778935432434,-0.4189853072166443
1759864138713803300,15.22180322265625,1.4389152526855469,1.37906014919281,-0.7852981686592102
1759864138723874000,15.2318740234375,1.7262194156646729,1.1324573755264282,-0.9816226959228516
1759864138754086400,15.26208642578125,2.118868589401245,0.42377370595932007,-0.7254431247711182
1759864138764188000,15.27218798828125,2.5689783096313477,0.5147533416748047,-0.8595184087753296
1759864138774258700,15.2822587890625,2.5929205417633057,0.7493851184844971,-1.091755986213684
1759864138784329500,15.29232958984375,2.564189910888672,0.8427590131759644,-1.1994950771331787
1759864138814541800,15.322541748046875,2.542642116546631,0.8786720037460327,-1.3431471586227417
1759864138834683400,15.342683349609375,2.4588451385498047,0.6871358752250671,-1.3407529592514038
1759864138844723700,15.3527236328125,2.3535003662109375,0.7469909191131592,-1.2114660739898682
1759864138854764000,15.362763916015625,2.3702597618103027,0.629675030708313,-0.9768342971801758
1759864138864834800,15.372834716796875,2.434903144836426,0.7254431247711182,-0.8858546018600464
1759864138874905600,15.382905517578125,2.47560453414917,0.8236053586006165,-0.730231523513794
1759864138884976400,15.392976318359375,2.513911724090576,0.7469909191131592,-0.3974374830722809
1759864138895016700,15.4030166015625,2.5306711196899414,0.6224924325942993,-0.13407529890537262
1759864138905087500,15.41308740234375,2.250549554824829,0.3998316824436188,0.3734954595565796
1759864138915188700,15.423188720703125,1.9129672050476074,-0.090979665517807,0.7852981686592102
1759864138925259500,15.433259521484375,1.6400281190872192,-0.6967126727104187,1.158793568611145
1759864138945431800,15.453431884765624,0.9169792532920837,-0.9600749015808105,1.6065093278884888
1759864138955533000,15.463532958984375,0.8427590131759644,-0.5051765441894531,1.580173134803772
1759864138965603800,15.473603759765625,0.706289529800415,-0.07182604819536209,1.522712230682373
1759864138975644200,15.48364404296875,0.6320692300796509,-0.2082955539226532,1.2234370708465576
1759864138985745400,15.493745361328125,0.5746083855628967,-0.6129156351089478,0.8547300100326538
1759864138995816200,15.503816162109375,0.5099649429321289,-0.8140285611152649,0.8092401623725891
1759864139005856500,15.5138564453125,0.4572925269603729,-0.7589619159698486,0.8667010068893433
1759864139015957800,15.523957763671875,0.4141969084739685,-0.7781155705451965,0.9576807022094727
1759864139025998000,15.533998046875,0.33997663855552673,-0.7254431247711182,0.9457096457481384
1759864139076413200,15.5844130859375,0.5267243981361389,-0.3471592366695404,0.3998316824436188
1759864139086453500,15.59445361328125,0.5770025849342346,-0.5506663918495178,0.11971008777618408
1759864139096493800,15.604493896484374,0.3926490843296051,-0.912190854549408,0.3232172429561615
1759864139106534000,15.614533935546875,-0.08379705995321274,-1.8818424940109253,1.290474772453308
1759864139116605000,15.62460498046875,-0.9313444495201111,-3.667917013168335,3.098097085952759
1759864139156918500,15.66491845703125,-6.033388137817383,1.0199298858642578,-0.7852981686592102
1759864139166989300,15.6749892578125,-3.646369218826294,1.3910311460494995,-2.248155355453491
1759864139177060000,15.68506005859375,-3.0358476638793945,-1.4437036514282227,-3.090914487838745
1759864139187131000,15.695130859375,-0.8786720037460327,-4.134786128997803,-2.7892448902130127
1759864139207333600,15.715333740234374,-2.542642116546631,-8.099584579467773,-0.3711012601852417
1759864139217374000,15.7253740234375,-3.620033025741577,-4.817133903503418,-0.5003881454467773
1759864139247586300,15.75558642578125,-2.410961151123047,-0.45010992884635925,-1.3958195447921753
1759864139257657000,15.765656982421875,-1.5753847360610962,-1.3646949529647827,-0.9481038451194763
1759864139267758300,15.77575830078125,-1.0414776802062988,-2.387019157409668,-0.11252748221158981
1759864139277859600,15.785859619140625,-0.6368576288223267,-3.3470940589904785,0.023942016065120697
1759864139287930600,15.7959306640625,-0.272938996553421,-3.713406801223755,-0.5506663918495178
1759864139298001400,15.80600146484375,-0.2513911724090576,-3.162740468978882,-1.1851298809051514
1759864139308072200,15.816072265625,-0.33039984107017517,-1.9584569931030273,-1.7812861204147339
1759864139318143000,15.82614306640625,-0.6320692300796509,-0.6153098344802856,-2.027888774871826
1759864139328213800,15.8362138671875,-0.5770025849342346,-0.6153098344802856,-1.9919757843017578
1759864139358426000,15.866426025390625,0.23702596127986908,0.5003881454467773,-1.6424223184585571
1759864139368497000,15.876496826171875,0.6392518281936646,0.16759411990642548,-1.5538369417190552
1759864139378567700,15.886567626953125,1.0007762908935547,-0.15083470940589905,-1.45806884765625
1759864139388638500,15.896638427734375,1.314416766166687,-0.0694318488240242,-1.292868971824646
1759864139408749600,15.91674951171875,1.5059528350830078,0.36152446269989014,-1.091755986213684
1759864139418850800,15.926850830078125,1.556231141090393,0.42377370595932007,-1.0534487962722778
1759864139428921600,15.936921630859375,1.7310078144073486,0.5841852426528931,-1.1085153818130493
1759864139469174300,15.97717431640625,1.4101848602294922,0.035913024097681046,-1.1468225717544556
1759864139479245300,15.987245361328124,1.3503297567367554,-0.5506663918495178,-0.8523358106613159
1759864139489346600,15.9973466796875,1.2952631711959839,-1.158793568611145,-0.7086837291717529
1759864139499447800,16.00744775390625,1.1300631761550903,-1.7046716213226318,-0.4213795065879822
1759864139529629700,16.037629638671874,-0.4620809257030487,-1.5442601442337036,0.20111294090747833
1759864139559872500,16.06787255859375,-2.0446481704711914,-0.6153098344802856,0.35913026332855225
1759864139569974000,16.07797412109375,-1.5179238319396973,-0.7469909191131592,0.23702596127986908
1759864139580044800,16.088044921875,-0.8475474119186401,-0.7038952708244324,-0.028730420395731926
1759864139590146000,16.09814599609375,-0.7565677165985107,-0.5315127968788147,-0.1364694982767105
1759864139600216800,16.108216796875,-1.3263877630233765,-0.9241618514060974,0.0933738648891449
1759864139610257200,16.118257080078124,-1.944091796875,-1.987187385559082,0.5602431893348694
1759864139630398700,16.138398681640624,-3.1507694721221924,-1.8938134908676147,1.072602391242981
1759864139670681900,16.178681884765624,-3.1459810733795166,0.730231523513794,0.3974374830722809
1759864139690793000,16.19879296875,-3.224989652633667,0.24420857429504395,0.11013327538967133
1759864139700863700,16.20886376953125,-3.136404275894165,0.3016694188117981,-0.05746084079146385
1759864139710934500,16.2189345703125,-3.0142998695373535,0.45489832758903503,-0.19632454216480255
1759864139721005600,16.229005615234374,-2.674323320388794,0.5674257874488831,-0.3902548849582672
1759864139731045600,16.239045654296874,-2.389413356781006,0.8667010068893433,-0.5650315880775452
1759864139741147100,16.249147216796874,-2.4803929328918457,1.335964560508728,-0.40940847992897034
1759864139771359500,16.279359375,-1.721431016921997,1.5514427423477173,-0.3734954595565796
1759864139781430300,16.28943017578125,-1.2689268589019775,1.680729627609253,-0.6392518281936646
1759864139791470600,16.299470703125,-0.7709329724311829,1.6639702320098877,-0.6392518281936646
1759864139801571800,16.30957177734375,-0.17956513166427612,1.4844050407409668,-0.6057330369949341
1759864139811581700,16.319581787109374,0.5817909836769104,1.2976573705673218,-0.5770025849342346
1759864139821683000,16.329682861328124,0.7757213711738586,1.1492167711257935,-0.5410895943641663
1759864139831753700,16.339753662109374,1.0654197931289673,0.8212111592292786,-0.4644751250743866
1759864139841824500,16.349824462890624,1.5466543436050415,0.5027823448181152,-0.5291185975074768
1759864139851834400,16.35983447265625,1.644816517829895,0.4189853072166443,-0.5913678407669067
1759864139861935600,16.369935546875,1.8267759084701538,0.6943184733390808,-0.8523358106613159
1759864139882138400,16.390138427734374,1.7956513166427612,1.139639973640442,-1.0989385843276978
1759864139892178400,16.400178466796874,1.4173674583435059,0.8930372595787048,-0.9528923034667969
1759864139902280000,16.410280029296874,1.6089035272598267,0.5291185975074768,-0.9145850539207458
1759864139912350700,16.420350830078124,1.8363527059555054,0.7589619159698486,-0.9840168952941895
1759864139922421500,16.43042138671875,1.5705963373184204,1.1994950771331787,-0.9026140570640564
1759864139932461800,16.4404619140625,1.1755530834197998,1.192312479019165,-0.646434485912323
1759864139942532600,16.45053271484375,0.6200982332229614,0.751779317855835,-0.24899697303771973
1759864139952633900,16.4606337890625,0.3926490843296051,0.2849099934101105,0.0694318488240242
1759864139962704600,16.47070458984375,0.5889736413955688,0.17956513166427612,0.23702596127986908
1759864139972775400,16.480775390625,0.9792284965515137,0.3974374830722809,0.22744916379451752
1759864139982846200,16.49084619140625,1.3551181554794312,0.629675030708313,0.2777273952960968
1759864139992917000,16.5009169921875,1.0438719987869263,0.7948749661445618,0.5578489899635315
1759864140003018500,16.5110185546875,0.7709329724311829,0.4572925269603729,1.0678139925003052
1759864140013058600,16.52105859375,0.47644615173339844,-0.35673606395721436,1.5322890281677246
1759864140023160000,16.53116015625,-0.07900865375995636,-1.1109095811843872,1.721431016921997
1759864140033230800,16.54123095703125,-0.38307225704193115,-1.6735470294952393,1.941697597503662
1759864140043240400,16.551240478515624,-0.35434186458587646,-2.0183119773864746,1.9297266006469727
1759864140053342000,16.561342041015624,-0.37828385829925537,-1.8626888990402222,1.742978811264038
1759864140083584800,16.591584716796874,-1.070208191871643,-1.37906014919281,1.482010841369629
1759864140093625000,16.601625,-1.2713210582733154,-0.9074024558067322,1.5155296325683594
1759864140103726300,16.611726318359374,-1.5418659448623657,-0.9313444495201111,1.7262194156646729
1759864140113797000,16.621797119140624,-1.702277421951294,-1.216254472732544,2.22660756111145
1759864140123868000,16.631867919921874,-2.3726539611816406,-1.357512354850769,2.96162748336792
1759864140133938700,16.641938720703124,-3.2345664501190186,-1.9177556037902832,2.959233283996582
1759864140144040200,16.652040283203124,-3.1866824626922607,-2.3127987384796143,2.3511061668395996
1759864140154111000,16.662111083984374,-2.786850690841675,-1.4772224426269531,1.0965443849563599
1759864140194485800,16.70248583984375,-0.47644615173339844,-0.6607996821403503,-1.091755986213684
1759864140204556500,16.712556640625,-0.8547300100326538,-0.912190854549408,-0.6607996821403503
1759864140214627300,16.72262744140625,-1.2473790645599365,-1.0319008827209473,-0.28969839215278625
1759864140224698000,16.732697998046874,-1.6663644313812256,-0.9002198576927185,-0.5315127968788147
1759864140234769000,16.742768798828124,-1.6903064250946045,-0.7589619159698486,-1.0247182846069336
1759864140244870100,16.7528701171875,-1.45806884765625,-0.38307225704193115,-1.3982137441635132
1759864140295193600,16.803193603515624,-0.10534487664699554,-0.47644615173339844,-1.1563993692398071
1759864140315396400,16.823396240234374,-0.09576806426048279,-0.40222588181495667,-0.9528923034667969
1759864140325467100,16.833467041015624,0.14604631066322327,-0.10295066982507706,-1.0749965906143188
1759864140335538000,16.843537841796874,0.21787235140800476,-0.05746084079146385,-0.9528923034667969
1759864140345639200,16.85363916015625,0.45010992884635925,0.4620809257030487,-0.9145850539207458
1759864140355710000,16.8637099609375,0.8738836050033569,1.0582371950149536,-0.811634361743927
1759864140365780700,16.87378076171875,1.3718775510787964,1.3000515699386597,-0.9959878921508789
1759864140395962600,16.903962646484374,2.4205379486083984,1.0007762908935547,-1.1061211824417114
1759864140406033400,16.914033447265624,2.676717519760132,0.7972691655158997,-1.0127472877502441
1759864140416135000,16.924135009765624,2.5258827209472656,0.5315127968788147,-0.7230489253997803
1759864140426175200,16.93417529296875,2.559401512145996,0.3974374830722809,-0.3232172429561615
1759864140436276500,16.9442763671875,2.4660277366638184,0.3687070608139038,-0.028730420395731926
1759864140446377700,16.954377685546874,2.516305923461914,0.4836287498474121,-0.021547814831137657
1759864140456418000,16.96441796875,2.4827871322631836,0.40462008118629456,-0.047884032130241394
1759864140466519300,16.974519287109374,2.319981336593628,0.38067805767059326,-0.1149216815829277
1759864140476590000,16.984590087890624,2.3319525718688965,0.35673606395721436,-0.035913024097681046
1759864140486630400,16.99463037109375,2.315192937850952,0.1628057211637497,0.026336219161748886
1759864140506802700,17.014802734375,1.5825673341751099,0.12210428714752197,0.4596867263317108
1759864140516873500,17.02487353515625,1.4700398445129395,-0.12449848651885986,0.5482721924781799
1759864140526944300,17.0349443359375,1.5634137392044067,-0.2082955539226532,0.4644751250743866
1759864140536984600,17.044984619140624,1.5275006294250488,-0.21308395266532898,0.42616790533065796
1759864140547085800,17.0550859375,1.3718775510787964,-0.17717093229293823,0.6105214357376099
1759864140557187000,17.06518701171875,0.9983820915222168,-0.6177040338516235,1.1037269830703735
1759864140567288300,17.075288330078124,0.5267243981361389,-1.45806884765625,1.5418659448623657
1759864140577359000,17.085359130859374,-0.090979665517807,-1.6041151285171509,1.8291701078414917
1759864140587430000,17.095429931640624,-1.0678139925003052,-1.3742717504501343,1.8794482946395874
1759864140617673000,17.1256728515625,-0.849941611289978,-0.8331822156906128,1.1444283723831177
1759864140627713300,17.13571337890625,-0.5291185975074768,-1.0749965906143188,1.1803414821624756
1759864140637784000,17.1457841796875,-0.21787235140800476,-1.0989385843276978,1.381454348564148
1759864140647824400,17.155824462890624,-0.31603461503982544,-1.292868971824646,1.7717092037200928
1759864140657925600,17.165925537109374,-0.950498104095459,-1.7070658206939697,2.1092917919158936
1759864140668027000,17.17602685546875,-1.6663644313812256,-1.9488801956176758,2.188300371170044
1759864140678097700,17.18609765625,-2.2912509441375732,-1.9105730056762695,2.0422539710998535
1759864140688168400,17.19616845703125,-2.2864625453948975,-1.4628572463989258,1.922544002532959
1759864140718381000,17.226381103515624,-1.3192051649093628,1.0103530883789062,0.6224924325942993
1759864140728482300,17.236482421875,-1.3718775510787964,0.8690952062606812,0.6871358752250671
1759864140738553000,17.246552978515624,-1.4173674583435059,0.5554547905921936,1.015141487121582
1759864140748624000,17.256623779296874,-1.678335428237915,0.33997663855552673,1.235408067703247
1759864140758694700,17.266694580078124,-1.9297266006469727,0.5315127968788147,1.1468225717544556
1759864140768735000,17.27673486328125,-2.1954829692840576,1.1013327836990356,0.8523358106613159
1759864140778805800,17.2868056640625,-2.410961151123047,1.7717092037200928,0.7374141216278076
1759864140788846000,17.29684619140625,-2.276885747909546,2.4684219360351562,0.646434485912323
1759864140819058400,17.327058349609374,-1.0749965906143188,1.2425906658172607,0.3926490843296051
1759864140839200000,17.347199951171874,-0.49559974670410156,0.8690952062606812,0.2585737705230713
1759864140859311000,17.36731103515625,0.3711012601852417,1.3503297567367554,-0.0933738648891449
1759864140869382000,17.3773818359375,0.9265560507774353,1.3742717504501343,-0.21787235140800476
1759864140879452700,17.38745263671875,1.2258312702178955,1.1755530834197998,-0.2346317619085312
1759864140889523500,17.3975234375,1.5897499322891235,1.1228805780410767,-0.38546648621559143
1759864140909665000,17.4176650390625,2.166752576828003,0.8906430602073669,-0.3902548849582672
1759864140919766500,17.4277666015625,2.365471363067627,0.7398083209991455,-0.49559974670410156
1759864140929806600,17.437806640625,2.3702597618103027,0.6177040338516235,-0.4572925269603729
1759864140939908000,17.447908203125,2.2242133617401123,0.6607996821403503,-0.15322890877723694
1759864140949979000,17.457978759765624,2.1332337856292725,0.9696516990661621,0.019153613597154617
1759864140960080100,17.468080078125,2.0925323963165283,1.094150185585022,-0.06703764945268631
1759864140970212000,17.478212158203124,1.8986018896102905,1.0271124839782715,-0.14365209639072418
1759864140980313300,17.488313232421874,1.6759412288665771,0.9002198576927185,-0.2513911724090576
1759864140990384000,17.498384033203124,1.5610195398330688,0.6512228846549988,-0.1173158809542656
1759864141000455000,17.508454833984374,1.5107412338256836,0.3232172429561615,0.12689268589019775
1759864141030697700,17.53869775390625,0.6248866319656372,-0.15083470940589905,0.4908113479614258
1759864141050870000,17.5588701171875,0.6823474764823914,-0.24181437492370605,0.6823474764823914
1759864141071072500,17.579072509765624,0.8643068075180054,-0.33039984107017517,0.950498104095459
1759864141081143300,17.589143310546874,0.6655880808830261,-0.40940847992897034,1.2545616626739502
1759864141091214000,17.599214111328124,0.2322375625371933,-0.7110779285430908,1.5825673341751099
1759864141101284900,17.609284912109374,-0.14365209639072418,-0.9648633003234863,1.659181833267212
1759864141111356000,17.61935595703125,-0.7015010714530945,-1.1779472827911377,1.9081788063049316
1759864141131436300,17.639436279296874,-0.7086837291717529,-1.2641384601593018,2.0590133666992188
1759864141141537800,17.649537841796874,-0.9744400978088379,-1.2665326595306396,1.8195933103561401
1759864141151608600,17.659608642578124,-1.036689281463623,-1.3838485479354858,1.5131354331970215
1759864141161709800,17.669709716796874,-1.1779472827911377,-1.479616641998291,1.1276689767837524
1759864141171750100,17.679750244140624,-1.0606313943862915,-1.1180921792984009,1.0031704902648926
1759864141181851400,17.689851318359374,-1.3742717504501343,-0.5363011956214905,1.0869675874710083
1759864141191922200,17.699922119140624,-1.6304513216018677,-0.5315127968788147,1.039083480834961
1759864141201993000,17.709992919921874,-1.482010841369629,-1.0821791887283325,1.1228805780410767
1759864141232205300,17.740205322265624,-1.6089035272598267,-0.6488286852836609,0.5267243981361389
1759864141242276000,17.750276123046874,-1.800439715385437,-0.17717093229293823,0.18914192914962769
1759864141252286000,17.760285888671874,-2.1475989818573,0.09816227108240128,0.028730420395731926
1759864141262387200,17.77038720703125,-2.2409727573394775,0.011971008032560349,-0.36152446269989014
1759864141272458000,17.7804580078125,-2.3702597618103027,-0.44532153010368347,-0.4596867263317108
1759864141282498300,17.790498291015624,-2.322375535964966,-0.8906430602073669,-0.5626373887062073
1759864141292569000,17.800569091796874,-2.2361843585968018,-1.0773907899856567,-0.7924807667732239
1759864141302670600,17.810670654296874,-1.8483237028121948,-1.1037269830703735,-1.479616641998291
1759864141332883000,17.840883056640624,-1.139639973640442,-0.30885201692581177,-1.9776105880737305
1759864141342984200,17.850984130859374,-1.1085153818130493,-0.31364041566848755,-1.9536685943603516
1759864141353024500,17.8610244140625,-0.7134721279144287,-0.5219359993934631,-1.6711528301239014
1759864141363125800,17.871125732421874,-0.45010992884635925,-0.5051765441894531,-1.2832920551300049
1759864141373196500,17.881196533203124,-0.06224924325942993,-0.304063618183136,-1.0031704902648926
1759864141383267300,17.891267333984374,0.26575639843940735,0.05027823522686958,-0.8475474119186401
1759864141403409000,17.911408935546874,0.6033388376235962,0.586579442024231,-0.40222588181495667
1759864141433621500,17.94162158203125,1.1516109704971313,0.8643068075180054,-0.2513911724090576
1759864141443692300,17.9516923828125,1.1971008777618408,0.7661445140838623,-0.3064578175544739
1759864141453763000,17.96176318359375,1.290474772453308,0.730231523513794,-0.22505496442317963
1759864141473904600,17.981904541015624,1.4915876388549805,0.9720458984375,-0.26336219906806946
1759864141484006000,17.992005859375,1.6831238269805908,1.1492167711257935,-0.2968810200691223
1759864141494107100,18.002107177734374,1.8291701078414917,1.1061211824417114,-0.19871874153614044
1759864141504147500,18.0121474609375,1.9632453918457031,1.01753568649292,-0.19632454216480255
1759864141514249000,18.0222490234375,2.0614075660705566,0.8690952062606812,-0.20350714027881622
1759864141544430800,18.052430908203124,1.8770540952682495,0.7661445140838623,-0.38546648621559143
1759864141554532000,18.062531982421874,1.8052281141281128,0.4620809257030487,-0.31603461503982544
1759864141564603000,18.072602783203124,1.7357962131500244,0.09816227108240128,-0.2346317619085312
1759864141574673700,18.082673583984374,1.723825216293335,-0.19632454216480255,-0.26815059781074524
1759864141584744400,18.092744384765624,1.7070658206939697,-0.15801730751991272,-0.2992752194404602
1759864141594815200,18.102815185546874,1.522712230682373,-0.30885201692581177,-0.16759411990642548
1759864141604916500,18.11291650390625,1.3694833517074585,-0.4812345504760742,0.035913024097681046
1759864141615018000,18.12301806640625,1.1228805780410767,-0.5937620401382446,0.3974374830722809
1759864141625088800,18.1330888671875,0.9624691009521484,-0.8810662031173706,0.6392518281936646
1759864141655301000,18.163301025390624,-0.17238251864910126,-1.8171991109848022,1.2306196689605713
1759864141665402400,18.17340234375,-0.8020575642585754,-1.6304513216018677,1.1779472827911377
1759864141675473200,18.18347314453125,-0.993593692779541,-0.9768342971801758,1.1635819673538208
1759864141685574700,18.19357470703125,-0.8140285611152649,-0.8595184087753296,1.2689268589019775
1759864141695645400,18.2036455078125,-0.31842881441116333,-1.1803414821624756,1.1252747774124146
1759864141705685500,18.213685546875,0.22505496442317963,-1.278503656387329,1.1635819673538208
1759864141715756500,18.223756591796874,-0.1364694982767105,-1.3407529592514038,1.5418659448623657
