time,seconds_elapsed,z,y,x
1759864122633286700,-0.85871337890625,8.057965278625488,5.570374011993408,-0.4588327407836914
1759864122673631000,-0.818369140625,8.05998420715332,5.565921783447266,-0.47702568769454956
1759864122703934700,-0.788065185546875,8.056943893432617,5.569603443145752,-0.48534664511680603
1759864122734238700,-0.75776123046875,8.050664901733398,5.578617572784424,-0.486018568277359
1759864122754411000,-0.737589111328125,8.048274040222168,5.582469463348389,-0.4813631474971771
1759864122764512300,-0.72748779296875,8.047106742858887,5.584160804748535,-0.4812465310096741
1759864122794724600,-0.697275390625,8.034218788146973,5.602814197540283,-0.4797799587249756
1759864122814896600,-0.677103271484375,8.033929824829102,5.60329008102417,-0.47906216979026794
1759864122855118800,-0.636881103515625,8.024213790893555,5.616131782531738,-0.49137160181999207
1759864122905473000,-0.58652685546875,8.020997047424316,5.618053436279297,-0.5210331678390503
1759864122915574300,-0.57642578125,8.022195816040039,5.615786075592041,-0.5269739627838135
1759864122986039300,-0.505960693359375,8.00152587890625,5.641958713531494,-0.5606009364128113
1759864122996140500,-0.495859375,8.012006759643555,5.627296447753906,-0.5582654476165771
1759864123066636300,-0.42536376953125,8.032305717468262,5.59951639175415,-0.5457672476768494
1759864123076676600,-0.415323486328125,8.03042984008789,5.602518558502197,-0.5425581932067871
1759864123106858500,-0.3851416015625,8.027429580688477,5.609062194824219,-0.518830418586731
1759864123147141600,-0.3448583984375,8.051084518432617,5.584591865539551,-0.40342649817466736
1759864123197465000,-0.294534912109375,8.28952407836914,5.239506244659424,0.04186258092522621
1759864123247849700,-0.244150390625,8.673361778259277,4.52797794342041,0.6637665629386902
1759864123278062000,-0.21393798828125,9.196722984313965,3.127997875213623,1.3439873456954956
1759864123298203600,-0.19379638671875,9.41051197052002,2.173551082611084,1.6995058059692383
1759864123328477200,-0.163522705078125,9.47749137878418,-0.5102821588516235,2.4672181606292725
1759864123378861600,-0.113138427734375,7.014450550079346,-5.646307468414307,3.8842103481292725
1759864123399003100,-0.092996826171875,5.816127300262451,-6.635036468505859,4.2801103591918945
1759864123409074000,-0.082926025390625,4.534292221069336,-7.346299648284912,4.652145862579346
1759864123439286300,-0.052713623046875,2.0647599697113037,-8.04956340789795,5.2068867683410645
1759864123449387800,-0.0426123046875,1.6934890747070312,-8.080814361572266,5.291781902313232
1759864123459458600,-0.03254150390625,1.0703246593475342,-8.065662384033203,5.474477291107178
1759864123469559800,-0.022440185546875,0.33220550417900085,-7.962349891662598,5.714982032775879
1759864123499833300,0.007833251953125,-0.786180853843689,-7.716297626495361,6.000921249389648
1759864123509934600,0.0179345703125,-1.0342894792556763,-7.648200035095215,6.050265312194824
1759864123530106600,0.038106689453125,-1.262412667274475,-7.585445404052734,6.085865497589111
1759864123540177400,0.048177490234375,-1.3027379512786865,-7.571788311004639,6.09436559677124
1759864125163478000,1.67147802734375,-3.442864418029785,-7.226679801940918,5.6649932861328125
1759864125173348600,1.6813486328125,-3.4851813316345215,-7.226651191711426,5.639094352722168
1759864125183219500,1.691219482421875,-3.52752423286438,-7.226382732391357,5.613053798675537
1759864125203361000,1.711361083984375,-3.6251838207244873,-7.158352851867676,5.637942314147949
1759864125213431800,1.721431884765625,-3.650346279144287,-7.115209579467773,5.67619514465332
1759864125223502600,1.731502685546875,-3.6913516521453857,-7.079758644104004,5.693976879119873
1759864125233573600,1.74157373046875,-3.7167770862579346,-7.072300434112549,5.686699390411377
1759864125263786000,1.771785888671875,-3.7049083709716797,-7.101120471954346,5.658457279205322
1759864125294028800,1.80202880859375,-3.627183437347412,-7.197507858276367,5.586570739746094
1759864125314200800,1.822200927734375,-3.617469310760498,-7.259496212005615,5.512175559997559
1759864125354453800,1.862453857421875,-3.865583658218384,-7.274799346923828,5.320242404937744
1759864125374525700,1.882525634765625,-4.166238307952881,-7.216125011444092,5.171116828918457
1759864125394698000,1.902697998046875,-4.332769870758057,-7.196232795715332,5.0608086585998535
1759864125424910300,1.932910400390625,-4.391233444213867,-7.269591331481934,4.903115749359131
1759864125434981000,1.942981201171875,-4.328328609466553,-7.34096622467041,4.852443218231201
1759864125445021400,1.953021484375,-4.308194160461426,-7.364074230194092,4.835318088531494
1759864125455092200,1.96309228515625,-4.258836269378662,-7.433093547821045,4.773031234741211
1759864125465163000,1.9731630859375,-4.224802017211914,-7.474571228027344,4.738381385803223
1759864125525618200,2.0336181640625,-3.8170905113220215,-7.7807488441467285,4.589132308959961
1759864125545790500,2.05379052734375,-3.661303758621216,-7.94242525100708,4.436567306518555
1759864125555861200,2.063861328125,-3.488293409347534,-8.128142356872559,4.2350311279296875
1759864125565932000,2.07393212890625,-3.4253036975860596,-8.188904762268066,4.168878078460693
1759864125596205600,2.10420556640625,-3.126572608947754,-8.475343704223633,3.8162131309509277
1759864125606276400,2.1142763671875,-3.0624704360961914,-8.518224716186523,3.772470712661743
1759864125616347100,2.12434716796875,-3.0404765605926514,-8.505704879760742,3.8182320594787598
1759864125636458200,2.144458251953125,-3.111558437347412,-8.421587944030762,3.945308208465576
1759864125646529000,2.154529052734375,-3.1387224197387695,-8.399280548095703,3.971256971359253
1759864125656599800,2.164599853515625,-3.1903510093688965,-8.36338996887207,4.005718231201172
1759864125666701000,2.174701171875,-3.2217981815338135,-8.348245620727539,4.012133598327637
1759864125686873000,2.194873046875,-3.250814437866211,-8.337501525878906,4.01107120513916
1759864125727156500,2.235156494140625,-3.317239999771118,-8.296989440917969,4.040582656860352
1759864125747328500,2.25532861328125,-3.3825862407684326,-8.239964485168457,4.102620601654053
1759864125757399300,2.2653994140625,-3.409806728363037,-8.208128929138184,4.143701076507568
1759864125767470000,2.275469970703125,-3.4191064834594727,-8.192387580871582,4.167119979858398
1759864125777540900,2.285540771484375,-3.4430460929870605,-8.162302017211914,4.206264495849609
1759864125837965800,2.3459658203125,-3.4733974933624268,-7.990093231201172,4.501590251922607
1759864125858137900,2.366137939453125,-3.4564170837402344,-7.936374187469482,4.608425617218018
1759864125868208600,2.376208740234375,-3.4429736137390137,-7.931786060333252,4.626350402832031
1759864125878249000,2.3862490234375,-3.5095202922821045,-7.894870758056641,4.639469623565674
1759864125918562600,2.4265625,-4.297977447509766,-7.557610988616943,4.536556720733643
1759864125928664000,2.4366640625,-4.409034729003906,-7.5106000900268555,4.507960796356201
1759864125938765300,2.446765380859375,-4.776741981506348,-7.3653364181518555,4.370917320251465
1759864125948866600,2.456866455078125,-4.984038352966309,-7.278871059417725,4.283429145812988
1759864125958937300,2.466937255859375,-5.165494441986084,-7.197729110717773,4.204852104187012
1759864125969038600,2.47703857421875,-5.356537818908691,-7.11292028427124,4.1090474128723145
1759864125979079000,2.487078857421875,-5.513796806335449,-7.0530171394348145,4.002931118011475
1759864126019392800,2.527392822265625,-5.651421546936035,-7.043670177459717,3.823418140411377
1759864126029463600,2.537463623046875,-5.644169807434082,-7.079338073730469,3.76784610748291
1759864126039534300,2.547534423828125,-5.615016937255859,-7.1131510734558105,3.747680187225342
1759864126049635600,2.557635498046875,-5.466522216796875,-7.181872844696045,3.8351376056671143
1759864126059706400,2.567706298828125,-5.332296848297119,-7.244220733642578,3.906183958053589
1759864126069746700,2.57774658203125,-4.726140022277832,-7.6160688400268555,3.9786248207092285
1759864126079848000,2.587847900390625,-4.567894458770752,-7.738093852996826,3.9276814460754395
1759864126110121500,2.61812158203125,-4.087005138397217,-8.070991516113281,3.784956455230713
1759864126130202000,2.6382021484375,-4.229772090911865,-8.033402442932129,3.707266330718994
1759864126140303400,2.648303466796875,-4.296177864074707,-8.003445625305176,3.6956958770751953
1759864126150404600,2.658404541015625,-4.447953701019287,-7.924424648284912,3.686412811279297
1759864126160414500,2.66841455078125,-4.666924953460693,-7.79423713684082,3.693246603012085
1759864126170485200,2.6784853515625,-4.735900402069092,-7.748589992523193,3.7014901638031006
1759864126180586500,2.68858642578125,-4.918437957763672,-7.613891124725342,3.7427258491516113
1759864126190657300,2.6986572265625,-5.033270359039307,-7.5210957527160645,3.777529001235962
1759864126200697600,2.708697509765625,-5.087442398071289,-7.473719120025635,3.798931121826172
1759864126230910000,2.738909912109375,-5.4071946144104,-7.1448073387146,3.98551869392395
1759864126240950300,2.7489501953125,-5.499868392944336,-7.023416519165039,4.073507785797119
1759864126251051500,2.759051513671875,-5.574181079864502,-6.90593957901001,4.172154426574707
1759864126261122600,2.76912255859375,-5.65421724319458,-6.787145137786865,4.258512020111084
1759864126271193300,2.779193359375,-5.75111198425293,-6.6226654052734375,4.385819911956787
1759864126281264000,2.78926416015625,-5.774799346923828,-6.568272113800049,4.436203956604004
1759864126291335000,2.7993349609375,-5.828529357910156,-6.4534196853637695,4.533432483673096
1759864126301375200,2.809375244140625,-5.879308223724365,-6.332960605621338,4.636561870574951
1759864126331526400,2.8395263671875,-6.042989730834961,-5.930439472198486,4.947988510131836
1759864126341597200,2.84959716796875,-6.129242420196533,-5.746863842010498,5.057305812835693
1759864126351637500,2.859637451171875,-6.149781703948975,-5.652149677276611,5.138458251953125
1759864126361708300,2.869708251953125,-6.16083288192749,-5.604102611541748,5.177700042724609
1759864126381880600,2.889880615234375,-6.2165207862854,-5.368212699890137,5.357944965362549
1759864126422163700,2.930163818359375,-6.258004665374756,-5.042463302612305,5.619731426239014
1759864126452376000,2.9603759765625,-6.244321346282959,-4.943495750427246,5.721949100494385
1759864126462446800,2.97044677734375,-6.231693267822266,-4.9261908531188965,5.75056266784668
1759864126472517600,2.980517578125,-6.202050685882568,-4.9229230880737305,5.785311222076416
1759864126482588400,2.99058837890625,-6.179353713989258,-4.9306111335754395,5.8030219078063965
1759864126522810600,3.030810546875,-6.081306457519531,-4.968191146850586,5.874115467071533
1759864126532911900,3.040911865234375,-6.07019567489624,-4.976651191711426,5.878438949584961
1759864126543013400,3.051013427734375,-6.050593852996826,-4.996521472930908,5.881791591644287
1759864126553053700,3.0610537109375,-6.029792308807373,-5.010133743286133,5.891569137573242
1759864126563124500,3.07112451171875,-5.9872894287109375,-5.044121742248535,5.905898094177246
1759864126573195300,3.0811953125,-5.936696529388428,-5.083032608032227,5.923580169677734
1759864126583296500,3.091296630859375,-5.876139163970947,-5.145469665527344,5.930054664611816
1759864126593367300,3.1013671875,-5.853302955627441,-5.162901878356934,5.9374799728393555
1759864126643721200,3.15172119140625,-5.746067047119141,-5.333585739135742,5.891175270080566
1759864126663863000,3.171863037109375,-5.758474349975586,-5.354285717010498,5.860201835632324
1759864126673933800,3.181933837890625,-5.779913902282715,-5.364336967468262,5.829824924468994
1759864126684035000,3.19203515625,-5.809729099273682,-5.386405944824219,5.779629707336426
1759864126694105900,3.20210595703125,-5.80941104888916,-5.408072471618652,5.759673118591309
1759864126714308400,3.222308349609375,-5.8596343994140625,-5.418693542480469,5.698493003845215
1759864126724348700,3.2323486328125,-5.903810977935791,-5.405543327331543,5.665290355682373
1759864126744521000,3.25252099609375,-5.937099456787109,-5.393121242523193,5.642290115356445
1759864126754591700,3.262591796875,-5.932402610778809,-5.3972578048706055,5.643276214599609
1759864126764693000,3.27269287109375,-5.912999153137207,-5.406203746795654,5.655074596405029
1759864126774763800,3.282763671875,-5.8965020179748535,-5.418254375457764,5.6607584953308105
1759864126784865000,3.292864990234375,-5.886275291442871,-5.427077770233154,5.6629486083984375
1759864126794966500,3.302966552734375,-5.886627674102783,-5.426544189453125,5.663092136383057
1759864126805037300,3.313037353515625,-5.891108989715576,-5.420063018798828,5.664643287658691
1759864126835280100,3.343280029296875,-5.925877094268799,-5.405822277069092,5.641939163208008
1759864126845381400,3.35338134765625,-5.93026876449585,-5.401984214782715,5.641002178192139
1759864126855452200,3.3634521484375,-5.9489641189575195,-5.390565395355225,5.632230281829834
1759864126865553700,3.3735537109375,-5.948069095611572,-5.381749153137207,5.641600131988525
1759864126875624400,3.38362451171875,-5.958463191986084,-5.372734069824219,5.639227867126465
1759864126885695200,3.3936953125,-5.972958564758301,-5.361111164093018,5.634948253631592
1759864126895796500,3.40379638671875,-5.970285415649414,-5.353681564331055,5.644834518432617
1759864126905867300,3.4138671875,-5.962112903594971,-5.349636554718018,5.6572957038879395
1759864126915968500,3.423968505859375,-5.9490275382995605,-5.345450401306152,5.675002574920654
1759864126936079600,3.44407958984375,-5.927701473236084,-5.33536434173584,5.70672082901001
1759864126956221400,3.464221435546875,-5.895215034484863,-5.316626071929932,5.757630825042725
1759864126966322700,3.47432275390625,-5.890285491943359,-5.306499004364014,5.772000789642334
1759864126976393500,3.4843935546875,-5.896607875823975,-5.292153358459473,5.778720378875732
1759864126986494700,3.49449462890625,-5.8958740234375,-5.286290168762207,5.784824371337891
1759864126996535000,3.50453515625,-5.897922515869141,-5.274662494659424,5.793347358703613
1759864127006636300,3.51463623046875,-5.897324562072754,-5.256763935089111,5.810197353363037
1759864127016707000,3.52470703125,-5.885756015777588,-5.251350402832031,5.826797962188721
1759864127036818200,3.544818115234375,-5.882925510406494,-5.236459255218506,5.843040943145752
1759864127046919700,3.554919677734375,-5.895939826965332,-5.227524757385254,5.83791971206665
1759864127056990500,3.564990478515625,-5.914708137512207,-5.216765403747559,5.828548908233643
1759864127067030500,3.575030517578125,-5.9335408210754395,-5.20505952835083,5.8198676109313965
1759864127077101600,3.5851015625,-5.946548938751221,-5.195907115936279,5.8147687911987305
1759864127087172400,3.59517236328125,-5.946342945098877,-5.191322326660156,5.819072723388672
1759864127097243100,3.6052431640625,-5.940083026885986,-5.191155433654785,5.825611591339111
1759864127107344400,3.615344482421875,-5.914508819580078,-5.198495864868164,5.845053672790527
1759864127117384700,3.625384765625,-5.902894496917725,-5.201231956481934,5.854353904724121
1759864127157698300,3.6656982421875,-5.777406215667725,-5.260135173797607,5.926461696624756
1759864127167769000,3.67576904296875,-5.7349348068237305,-5.282866477966309,5.947459697723389
1759864127177839900,3.68583984375,-5.714225769042969,-5.2951884269714355,5.956424713134766
1759864127187941400,3.69594140625,-5.66860294342041,-5.321166515350342,5.976833343505859
1759864127197981700,3.705981689453125,-5.6259870529174805,-5.345172882080078,5.995647430419922
1759864127208052500,3.716052490234375,-5.5701189041137695,-5.372865676879883,6.022998332977295
1759864127218123300,3.726123291015625,-5.573755741119385,-5.368349552154541,6.0236639976501465
1759864127258406400,3.766406494140625,-5.553140640258789,-5.354362487792969,6.05506706237793
1759864127268507600,3.776507568359375,-5.55463171005249,-5.351367473602295,6.056345462799072
1759864127278609000,3.78660888671875,-5.564218044281006,-5.331864833831787,6.0647454261779785
1759864127288680000,3.796679931640625,-5.583657264709473,-5.316403388977051,6.060446739196777
1759864127298750700,3.806750732421875,-5.620931625366211,-5.305784702301025,6.035243034362793
1759864127308790800,3.816790771484375,-5.660837173461914,-5.279036045074463,6.021385669708252
1759864127318861800,3.82686181640625,-5.684764385223389,-5.269570827484131,6.007116794586182
1759864127328932600,3.8369326171875,-5.735905647277832,-5.241347789764404,5.983150005340576
1759864127339033900,3.847033935546875,-5.815886497497559,-5.186220645904541,5.953902721405029
1759864127359206000,3.867205810546875,-5.890125274658203,-5.141302108764648,5.919783115386963
1759864127369307100,3.87730712890625,-5.929933547973633,-5.11817741394043,5.900045871734619
1759864127379347500,3.887347412109375,-5.9700751304626465,-5.099935054779053,5.875316143035889
1759864127389449000,3.897448974609375,-5.991396427154541,-5.0900044441223145,5.862204074859619
1759864127399550200,3.90755029296875,-6.0121235847473145,-5.080556392669678,5.849164962768555
1759864127409590500,3.917590576171875,-6.034119129180908,-5.069719314575195,5.835901260375977
1759864127419661300,3.927661376953125,-6.0587873458862305,-5.056328773498535,5.821948051452637
1759864127429732000,3.937732177734375,-6.071099758148193,-5.049152851104736,5.815343379974365
1759864127460005400,3.96800537109375,-6.145978927612305,-4.993852138519287,5.784358024597168
1759864127470107000,3.97810693359375,-6.156526565551758,-4.984371185302734,5.781315326690674
1759864127480208100,3.9882080078125,-6.162402629852295,-4.977589130401611,5.780900001525879
1759864127490248400,3.99824853515625,-6.163021087646484,-4.975841045379639,5.7817463874816895
1759864127500319200,4.0083193359375,-6.1614813804626465,-4.973002910614014,5.785825729370117
1759864127510390000,4.01839013671875,-6.147574424743652,-4.979450702667236,5.795070171356201
1759864127520460800,4.028460693359375,-6.130746841430664,-4.991666793823242,5.802377223968506
1759864127530562000,4.03856201171875,-6.106799125671387,-5.0119524002075195,5.810133457183838
1759864127540663600,4.04866357421875,-6.084641933441162,-5.033993721008301,5.814332485198975
1759864127550764800,4.058764892578125,-6.034040451049805,-5.081740379333496,5.825524806976318
1759864127560835600,4.068835693359375,-6.008897304534912,-5.106362342834473,5.82997465133667
1759864127570906400,4.07890625,-5.934399604797363,-5.172973155975342,5.847539901733398
1759864127580977200,4.08897705078125,-5.8932037353515625,-5.211421966552734,5.855052471160889
1759864127591048000,4.0990478515625,-5.824520111083984,-5.270321369171143,5.871038436889648
1759864127601149200,4.109149169921875,-5.762303352355957,-5.319559574127197,5.887999534606934
1759864127611250700,4.119250732421875,-5.703880310058594,-5.365942478179932,5.902782917022705
1759864127621321500,4.129321533203125,-5.648128032684326,-5.411040782928467,5.915210247039795
1759864127631392300,4.139392333984375,-5.5698723793029785,-5.474983215332031,5.930553913116455
1759864127641432600,4.1494326171875,-5.5444865226745605,-5.495980739593506,5.934922218322754
1759864127671705900,4.179705810546875,-5.436162948608398,-5.586093902587891,5.95097541809082
1759864127681746200,4.18974609375,-5.429414749145508,-5.593486309051514,5.950193881988525
1759864127691847400,4.199847412109375,-5.42692232131958,-5.5978851318359375,5.94832706451416
1759864127701949000,4.209948974609375,-5.420777797698975,-5.602907180786133,5.9492034912109375
1759864127712050200,4.22005029296875,-5.414500713348389,-5.608782768249512,5.9493794441223145
1759864127722121000,4.230120849609375,-5.3947954177856445,-5.615235328674316,5.96118688583374
1759864127732191700,4.240191650390625,-5.376221179962158,-5.620984077453613,5.972536563873291
1759864127742262500,4.250262451171875,-5.352280616760254,-5.631896018981934,5.983750820159912
1759864127772536000,4.2805361328125,-5.243361949920654,-5.666846752166748,6.046851634979248
1759864127782606800,4.29060693359375,-5.1964521408081055,-5.687068462371826,6.068321704864502
1759864127792677600,4.300677734375,-5.173892498016357,-5.697414875030518,6.077887535095215
1759864127802687500,4.3106875,-5.100926399230957,-5.736235618591309,6.10299825668335
1759864127812788700,4.320788818359375,-5.080234050750732,-5.748125076293945,6.109066963195801
1759864127822859500,4.330859619140625,-5.038825988769531,-5.771066665649414,6.121718406677246
1759864127832960800,4.340960693359375,-5.038146018981934,-5.774240493774414,6.119286060333252
1759864127843001000,4.3510009765625,-4.998179912567139,-5.798374176025391,6.129231929779053
1759864127863173000,4.371173095703125,-4.9878692626953125,-5.81074857711792,6.125909328460693
1759864127893446700,4.40144677734375,-5.121465682983398,-5.769647121429443,6.054106712341309
1759864127903517400,4.411517333984375,-5.185629367828369,-5.747198104858398,6.020749092102051
1759864127913618700,4.42161865234375,-5.245091438293457,-5.725917339324951,5.989428520202637
1759864127923689500,4.431689453125,-5.297344207763672,-5.707289218902588,5.961155414581299
1759864127933760300,4.44176025390625,-5.36012077331543,-5.686476707458496,5.92481803894043
1759864127943831300,4.451831298828125,-5.377584934234619,-5.680785179138184,5.914449691772461
1759864127974074000,4.48207421875,-5.47767972946167,-5.65286111831665,5.848984718322754
1759864127994215700,4.502215576171875,-5.55510139465332,-5.635010719299316,5.792915344238281
1759864128004286500,4.512286376953125,-5.573038101196289,-5.636172771453857,5.774530410766602
1759864128014357200,4.522357177734375,-5.587061405181885,-5.637845993041992,5.759325981140137
1759864128024397600,4.5323974609375,-5.599687099456787,-5.637240409851074,5.747647285461426
1759864128034498800,4.542498779296875,-5.605457305908203,-5.6360297203063965,5.743213653564453
1759864128044569600,4.552569580078125,-5.616887092590332,-5.631994247436523,5.735993385314941
1759864128054640400,4.562640380859375,-5.6243486404418945,-5.626369476318359,5.734201908111572
1759864128064711400,4.57271142578125,-5.629329204559326,-5.619581699371338,5.735969543457031
1759864128074782200,4.5827822265625,-5.631845474243164,-5.613190650939941,5.739762306213379
1759864128084853000,4.59285302734375,-5.632089614868164,-5.607617378234863,5.7449631690979
1759864128094923800,4.602923828125,-5.630671501159668,-5.601982116699219,5.751848220825195
1759864128105025000,4.61302490234375,-5.627371311187744,-5.594593524932861,5.762255668640137
1759864128115126300,4.623126220703125,-5.620508670806885,-5.584347248077393,5.778870105743408
1759864128125197000,4.633197021484375,-5.598916530609131,-5.558762550354004,5.824322700500488
1759864128135267800,4.643267822265625,-5.591618537902832,-5.540879249572754,5.848322868347168
1759864128145369300,4.653369384765625,-5.587287425994873,-5.535698413848877,5.857359886169434
1759864128155440000,4.663440185546875,-5.580870628356934,-5.529561996459961,5.869255542755127
1759864128165541400,4.673541259765625,-5.577032089233398,-5.529272556304932,5.873180389404297
1759864128185683000,4.693682861328125,-5.565249443054199,-5.53272008895874,5.881107330322266
1759864128215956500,4.72395654296875,-5.575968265533447,-5.520051002502441,5.8828606605529785
1759864128226057700,4.7340576171875,-5.580420017242432,-5.516678333282471,5.8817973136901855
1759864128236159000,4.744158935546875,-5.593838214874268,-5.504383563995361,5.880577087402344
1759864128246229800,4.754229736328125,-5.607488632202148,-5.491980075836182,5.879168510437012
1759864128256300500,4.764300537109375,-5.607686996459961,-5.478882789611816,5.891190052032471
1759864128276442400,4.7844423828125,-5.597991943359375,-5.470837593078613,5.907858848571777
1759864128286543600,4.794543701171875,-5.576406002044678,-5.469539165496826,5.92943811416626
1759864128296614400,4.804614501953125,-5.567596912384033,-5.4712629318237305,5.936120986938477
1759864128306685200,4.814685302734375,-5.546448707580566,-5.472561359405518,5.954697132110596
1759864128316786400,4.824786376953125,-5.5179338455200195,-5.470126628875732,5.983351230621338
1759864128326857200,4.834857177734375,-5.452590465545654,-5.46727991104126,6.045532703399658
1759864128336928000,4.844927978515625,-5.4118332862854,-5.460722923278809,6.08793830871582
1759864128346998800,4.854998779296875,-5.3921403884887695,-5.457913398742676,6.107898235321045
1759864128377211400,4.88521142578125,-5.276278018951416,-5.424579620361328,6.237406253814697
1759864128387251700,4.895251708984375,-5.2471923828125,-5.394982814788818,6.287412166595459
1759864128397353000,4.90535302734375,-5.24553108215332,-5.385480880737305,6.296933650970459
1759864128407393300,4.915393310546875,-5.26082706451416,-5.346023082733154,6.317763328552246
1759864128417464000,4.925464111328125,-5.284073829650879,-5.3356242179870605,6.307144641876221
1759864128427534800,4.935534912109375,-5.347385406494141,-5.311776161193848,6.273824214935303
1759864128437605600,4.945605712890625,-5.409906387329102,-5.283347129821777,6.244161128997803
1759864128447676400,4.955676513671875,-5.483526229858398,-5.259300231933594,6.200089454650879
1759864128457777700,4.965777587890625,-5.5534348487854,-5.230084419250488,6.162466049194336
1759864128477919200,4.985919189453125,-5.692844867706299,-5.16355562210083,6.090943813323975
1759864128487990000,4.995989990234375,-5.734001636505127,-5.159167766571045,6.0559539794921875
1759864128498060800,5.006060791015625,-5.783552169799805,-5.13324499130249,6.030813694000244
1759864128508131800,5.0161318359375,-5.824650287628174,-5.110734462738037,6.010345935821533
1759864128518202600,5.02620263671875,-5.860508441925049,-5.092792987823486,5.990686416625977
1759864128528303900,5.036303955078125,-5.916111946105957,-5.068985462188721,5.956125736236572
1759864128538405000,5.046405029296875,-5.934118747711182,-5.062413215637207,5.943790912628174
1759864128548476000,5.056475830078125,-5.970652103424072,-5.051237106323242,5.916646480560303
1759864128558577200,5.0665771484375,-6.004144668579102,-5.045035362243652,5.887976169586182
1759864128598830000,5.106830078125,-6.063022136688232,-5.065929889678955,5.809179306030273
1759864128608900900,5.11690087890625,-6.065981864929199,-5.075244426727295,5.797942638397217
1759864128618971600,5.1269716796875,-6.065359115600586,-5.085505485534668,5.789601802825928
1759864128629073000,5.137072998046875,-6.060902118682861,-5.097779273986816,5.7834672927856445
1759864128639143700,5.147143798828125,-6.052235126495361,-5.112670421600342,5.779405117034912
1759864128649214500,5.15721435546875,-6.038364887237549,-5.128997802734375,5.779438495635986
1759864128659285200,5.16728515625,-6.018305778503418,-5.146835803985596,5.784502983093262
1759864128699629600,5.207629638671875,-5.886035919189453,-5.232431888580322,5.843509674072266
1759864128719801600,5.227801513671875,-5.7623467445373535,-5.3118414878845215,5.894917964935303
1759864128729902800,5.23790283203125,-5.736551761627197,-5.335959434509277,5.8982977867126465
1759864128739973600,5.2479736328125,-5.703640937805176,-5.3553056716918945,5.912665843963623
1759864128750044700,5.258044677734375,-5.6743574142456055,-5.371278762817383,5.926332473754883
1759864128760115500,5.268115478515625,-5.652519226074219,-5.379540920257568,5.939691066741943
1759864128790388700,5.298388671875,-5.626861095428467,-5.377013206481934,5.96628999710083
1759864128810530300,5.3185302734375,-5.665754795074463,-5.342390060424805,5.96057653427124
1759864128820631800,5.3286318359375,-5.693658351898193,-5.316978454589844,5.956712245941162
1759864128840834300,5.348834228515625,-5.74037504196167,-5.277912616729736,5.946603298187256
1759864128850905000,5.358905029296875,-5.75413179397583,-5.267501354217529,5.942543029785156
1759864128861006600,5.369006591796875,-5.742745399475098,-5.270651340484619,5.950754642486572
1759864128901228500,5.409228515625,-5.571534156799316,-5.395249366760254,6.0016398429870605
1759864128911299300,5.41929931640625,-5.5456647872924805,-5.4158854484558105,6.007009983062744
1759864128931502000,5.439502197265625,-5.411316871643066,-5.513103008270264,6.0410051345825195
1759864128941603300,5.449603271484375,-5.401866912841797,-5.524721145629883,6.038848876953125
1759864128951674000,5.459674072265625,-5.375369548797607,-5.549458026885986,6.039811611175537
1759864128961775600,5.469775634765625,-5.406210899353027,-5.536405086517334,6.0242414474487305
1759864128971846400,5.479846435546875,-5.467545509338379,-5.506277084350586,5.9964375495910645
1759864129012160000,5.520159912109375,-5.607751846313477,-5.436041831970215,5.9306817054748535
1759864129022230800,5.530230712890625,-5.6726579666137695,-5.397110462188721,5.904452800750732
1759864129032332000,5.54033203125,-5.6921234130859375,-5.385481834411621,5.896328926086426
1759864129042311400,5.5503115234375,-5.7247490882873535,-5.364480018615723,5.883874416351318
1759864129052382200,5.56038232421875,-5.746830940246582,-5.347537040710449,5.877770900726318
1759864129062483500,5.5704833984375,-5.75908088684082,-5.334760665893555,5.877391815185547
1759864129072523800,5.580523681640625,-5.7635369300842285,-5.326627731323242,5.880395412445068
1759864129102675200,5.61067529296875,-5.763182163238525,-5.312593460083008,5.893426895141602
1759864129112776400,5.6207763671875,-5.767932891845703,-5.3051066398620605,5.8955254554748535
1759864129122816800,5.630816650390625,-5.779012680053711,-5.291667461395264,5.89674711227417
1759864129132887600,5.640887451171875,-5.783195972442627,-5.287441253662109,5.89643669128418
1759864129142988800,5.65098876953125,-5.787474632263184,-5.281906604766846,5.897202968597412
1759864129153090300,5.66109033203125,-5.788758277893066,-5.280564308166504,5.897149085998535
1759864129163100000,5.671099853515625,-5.789549350738525,-5.28130578994751,5.895702362060547
1759864129173170700,5.681170654296875,-5.794387340545654,-5.28105354309082,5.891170978546143
1759864129193343000,5.701343017578125,-5.8267388343811035,-5.268588066101074,5.870389461517334
1759864129203383300,5.71138330078125,-5.852097511291504,-5.2537641525268555,5.858441352844238
1759864129213484500,5.721484619140625,-5.869296550750732,-5.238822937011719,5.854610443115234
1759864129223585800,5.731585693359375,-5.871095180511475,-5.226310729980469,5.863985061645508
1759864129233656600,5.741656494140625,-5.866428852081299,-5.217504501342773,5.876486778259277
1759864129243697000,5.75169677734375,-5.8776021003723145,-5.202185153961182,5.878899574279785
1759864129253798100,5.761798095703125,-5.882232189178467,-5.193589687347412,5.881871223449707
1759864129263899600,5.771899658203125,-5.865928649902344,-5.199840068817139,5.8926191329956055
1759864129273970400,5.781970458984375,-5.851417064666748,-5.2050042152404785,5.902480602264404
1759864129314253600,5.822253662109375,-5.745874404907227,-5.260750770568848,5.956493854522705
1759864129324294000,5.8322939453125,-5.724855899810791,-5.2719340324401855,5.96683931350708
1759864129334334200,5.842334228515625,-5.714101791381836,-5.277648448944092,5.9720940589904785
1759864129344405000,5.852405029296875,-5.689566135406494,-5.288470268249512,5.985928058624268
1759864129354475800,5.862475830078125,-5.662408828735352,-5.2986931800842285,6.002617835998535
1759864129364455000,5.872454833984375,-5.636126518249512,-5.309628486633301,6.017665386199951
1759864129374556200,5.88255615234375,-5.606673240661621,-5.324517726898193,6.03200626373291
1759864129384657700,5.89265771484375,-5.598568916320801,-5.329357147216797,6.03526496887207
1759864129414931000,5.922930908203125,-5.544157028198242,-5.34377908706665,6.0726213455200195
1759864129424971300,5.93297119140625,-5.508265495300293,-5.3505964279174805,6.099224090576172
1759864129435042000,5.9430419921875,-5.485191345214844,-5.354403972625732,6.1166534423828125
1759864129445143600,5.9531435546875,-5.476245403289795,-5.356053829193115,6.123222351074219
1759864129455214300,5.96321435546875,-5.451176643371582,-5.356268882751465,6.145361423492432
1759864129465315600,5.973315673828125,-5.409171104431152,-5.355283737182617,6.183221817016602
1759864129475386400,5.983386474609375,-5.407135963439941,-5.354432106018066,6.185737609863281
1759864129485457200,5.99345703125,-5.420383930206299,-5.35448694229126,6.1740851402282715
1759864129515639000,6.02363916015625,-5.504317283630371,-5.354371547698975,6.09947395324707
1759864129545881900,6.0538818359375,-5.7121710777282715,-5.283002853393555,5.969201564788818
1759864129555922200,6.063922119140625,-5.74751091003418,-5.276411533355713,5.941044330596924
1759864129565993000,6.073992919921875,-5.816836357116699,-5.264076232910156,5.884243011474609
1759864129576063700,6.084063720703125,-5.876474380493164,-5.240176677703857,5.846196174621582
1759864129586165200,6.094165283203125,-5.927853584289551,-5.217802047729492,5.814248085021973
1759864129596266500,6.1042666015625,-5.9717278480529785,-5.199869632720947,5.785343647003174
1759864129616408000,6.124407958984375,-6.0388031005859375,-5.172523021697998,5.740054130554199
1759864129636580000,6.144580078125,-6.078840255737305,-5.159257888793945,5.709657669067383
1759864129646651000,6.15465087890625,-6.088169574737549,-5.158884525299072,5.70004415512085
1759864129656752400,6.16475244140625,-6.0911455154418945,-5.1612935066223145,5.694685935974121
1759864129666853600,6.174853515625,-6.090048789978027,-5.1645894050598145,5.692867279052734
1759864129676955000,6.184954833984375,-6.087387561798096,-5.166453838348389,5.694024085998535
1759864129687025700,6.195025634765625,-6.085707664489746,-5.166097640991211,5.696141242980957
1759864129697096400,6.205096435546875,-6.083920001983643,-5.1639556884765625,5.699991703033447
1759864129707198000,6.215197998046875,-6.082324504852295,-5.160559177398682,5.704769134521484
1759864129737410300,6.245410400390625,-6.0745649337768555,-5.151562213897705,5.721141815185547
1759864129747481000,6.255481201171875,-6.067274570465088,-5.153907775878906,5.726763725280762
1759864129757582300,6.265582275390625,-6.058154582977295,-5.158677577972412,5.732120513916016
1759864129767683800,6.275683837890625,-6.040917873382568,-5.173151016235352,5.737269401550293
1759864129777754600,6.285754638671875,-6.020150661468506,-5.192185878753662,5.741898536682129
1759864129787825400,6.295825439453125,-5.991994380950928,-5.224242210388184,5.742271423339844
1759864129797896200,6.305896240234375,-5.97291374206543,-5.241744518280029,5.746197700500488
1759864129838209800,6.346209716796875,-5.918425559997559,-5.296332836151123,5.752521991729736
1759864129848280600,6.356280517578125,-5.906332492828369,-5.3117804527282715,5.750711917877197
1759864129858382000,6.366382080078125,-5.897366046905518,-5.32222318649292,5.7502570152282715
1759864129878584600,6.38658447265625,-5.896792888641357,-5.330080986022949,5.743561267852783
1759864129888625000,6.396625,-5.903042316436768,-5.32911491394043,5.738035202026367
1759864129898726100,6.40672607421875,-5.908473491668701,-5.327071666717529,5.734341621398926
1759864129908797000,6.416796875,-5.907995700836182,-5.328093528747559,5.733880996704102
1759864129949141200,6.457141357421875,-5.826102256774902,-5.375821590423584,5.772992134094238
1759864129959212000,6.4672119140625,-5.781868934631348,-5.393290042877197,5.801101207733154
1759864129969313300,6.477313232421875,-5.699796199798584,-5.428370475769043,5.849405288696289
1759864129979384000,6.487384033203125,-5.6736297607421875,-5.4408345222473145,5.8632426261901855
1759864129989424400,6.49742431640625,-5.616724014282227,-5.467845916748047,5.892832279205322
1759864129999526000,6.50752587890625,-5.564278602600098,-5.491764545440674,5.920280933380127
1759864130009596700,6.5175966796875,-5.523002624511719,-5.508641242980957,5.943209648132324
1759864130049910300,6.55791015625,-5.643039703369141,-5.4359822273254395,5.897170543670654
1759864130070082300,6.578082275390625,-5.7184858322143555,-5.411701202392578,5.846607685089111
1759864130080183800,6.588183837890625,-5.770470142364502,-5.396864891052246,5.809127330780029
1759864130090254600,6.598254638671875,-5.8124284744262695,-5.382119178771973,5.780905246734619
1759864130100325400,6.608325439453125,-5.855040550231934,-5.367583274841309,5.751346111297607
1759864130110396200,6.618396240234375,-5.924973011016846,-5.3434295654296875,5.702003479003906
1759864130120467000,6.628467041015625,-5.9477219581604,-5.335721015930176,5.6855149269104
1759864130150740500,6.658740478515625,-6.050466060638428,-5.311655044555664,5.59898042678833
1759864130170851300,6.678851318359375,-6.077253818511963,-5.328343391418457,5.553928375244141
1759864130180952800,6.688952880859375,-6.0867838859558105,-5.337631702423096,5.534547328948975
1759864130191023600,6.699023681640625,-6.097179412841797,-5.343177318572998,5.51772403717041
1759864130201094400,6.709094482421875,-6.108034610748291,-5.344599723815918,5.504322528839111
1759864130211195600,6.719195556640625,-6.118171215057373,-5.3438801765441895,5.493756294250488
1759864130221266400,6.729266357421875,-6.12616491317749,-5.34330940246582,5.485395431518555
1759864130251509500,6.759509521484375,-6.127971649169922,-5.349617004394531,5.477221965789795
1759864130261610800,6.76961083984375,-6.124590873718262,-5.351907730102539,5.478762149810791
1759864130271651000,6.779651123046875,-6.121606826782227,-5.352832794189453,5.481199741363525
1759864130281752300,6.78975244140625,-6.117975234985352,-5.353046894073486,5.485045433044434
1759864130291853600,6.799853515625,-6.115711212158203,-5.352224349975586,5.488369941711426
1759864130301955000,6.809955078125,-6.111291408538818,-5.353075981140137,5.49246072769165
1759864130312025900,6.82002587890625,-6.099452018737793,-5.358699321746826,5.500129699707031
1759864130322127000,6.830127197265625,-6.072918891906738,-5.371766567230225,5.516723155975342
1759864130362471400,6.870471435546875,-5.950690746307373,-5.436676979064941,5.585896015167236
1759864130372572700,6.88057275390625,-5.921843528747559,-5.455365180969238,5.598323345184326
1759864130382674000,6.890673828125,-5.885066032409668,-5.48144006729126,5.611615180969238
1759864130392714200,6.90071435546875,-5.85941743850708,-5.4985175132751465,5.62174129486084
1759864130402815500,6.9108154296875,-5.845493793487549,-5.506469249725342,5.628450393676758
1759864130412886300,6.92088623046875,-5.804725170135498,-5.530871391296387,5.646684169769287
1759864130422987800,6.93098779296875,-5.779135227203369,-5.543950080871582,5.660087585449219
1759864130463271000,6.97127099609375,-5.717339992523193,-5.565009117126465,5.702021598815918
1759864130473341700,6.981341796875,-5.716616153717041,-5.564416885375977,5.70333194732666
1759864130483382000,6.991382080078125,-5.721368789672852,-5.559767246246338,5.703101634979248
1759864130493483300,7.001483154296875,-5.730730056762695,-5.547837257385254,5.705319404602051
1759864130503584500,7.01158447265625,-5.734781742095947,-5.5432820320129395,5.705676555633545
1759864130513655300,7.0216552734375,-5.74096155166626,-5.524085998535156,5.718061923980713
1759864130523695600,7.031695556640625,-5.747513294219971,-5.517046928405762,5.7182769775390625
1759864130574080300,7.082080322265625,-5.712271690368652,-5.520527362823486,5.750141620635986
1759864130594252300,7.102252197265625,-5.656150817871094,-5.530147075653076,5.796195030212402
1759864130614393900,7.122393798828125,-5.664801597595215,-5.512875080108643,5.804187297821045
1759864130624464600,7.132464599609375,-5.685555458068848,-5.489717483520508,5.805849552154541
1759864130634535400,7.142535400390625,-5.732508659362793,-5.4476318359375,5.799313545227051
1759864130654616000,7.162615966796875,-5.822254657745361,-5.383567810058594,5.769659996032715
1759864130664686800,7.172686767578125,-5.866496562957764,-5.356513023376465,5.749988079071045
1759864130674788000,7.1827880859375,-5.907626152038574,-5.334756374359131,5.728062152862549
1759864130684828400,7.192828369140625,-5.949208736419678,-5.315135955810547,5.703216552734375
1759864130694899200,7.202899169921875,-6.0071187019348145,-5.288943767547607,5.666748523712158
1759864130704970000,7.212969970703125,-6.02512264251709,-5.283091068267822,5.653076648712158
1759864130715071500,7.223071533203125,-6.057443618774414,-5.270055294036865,5.630653381347656
1759864130725111800,7.23311181640625,-6.085262298583984,-5.259106159210205,5.610867023468018
1759864130735182600,7.2431826171875,-6.110281944274902,-5.2514824867248535,5.590776443481445
1759864130745283800,7.253283935546875,-6.136747360229492,-5.243802547454834,5.5689568519592285
1759864130755354600,7.263354736328125,-6.165613174438477,-5.235324382781982,5.544996738433838
1759864130785475600,7.2934755859375,-6.266878604888916,-5.2010817527771,5.463091850280762
1759864130795576800,7.303576904296875,-6.277631759643555,-5.198838710784912,5.452876091003418
1759864130805647600,7.313647705078125,-6.298401832580566,-5.193228244781494,5.434238910675049
1759864130815748900,7.323748779296875,-6.313918590545654,-5.19171667098999,5.417649269104004
1759864130825850000,7.33385009765625,-6.321564197540283,-5.198343276977539,5.402356147766113
1759864130835951600,7.34395166015625,-6.319725036621094,-5.215258598327637,5.388184070587158
1759864130846052900,7.354052978515625,-6.30767822265625,-5.241814136505127,5.376522541046143
1759864130856123600,7.36412353515625,-6.289165019989014,-5.276772499084473,5.3639984130859375
1759864130886366500,7.394366455078125,-6.273447513580322,-5.309782981872559,5.349808216094971
1759864130906538800,7.414538818359375,-6.233449459075928,-5.339109420776367,5.367347240447998
1759864130916609500,7.424609619140625,-6.203183174133301,-5.36180305480957,5.379781723022461
1759864130926710800,7.434710693359375,-6.169853210449219,-5.3882012367248535,5.391716957092285
1759864130936781600,7.444781494140625,-6.137540817260742,-5.4138569831848145,5.4028849601745605
1759864130946822000,7.45482177734375,-6.109895706176758,-5.43483304977417,5.413145065307617
1759864130956892700,7.464892578125,-6.090517044067383,-5.448111057281494,5.421629428863525
1759864130987135700,7.4951357421875,-6.102438926696777,-5.435534477233887,5.420848846435547
1759864130997206500,7.50520654296875,-6.107013702392578,-5.432236671447754,5.419004917144775
1759864131007177200,7.51517724609375,-6.1166090965271,-5.4284281730651855,5.411994934082031
1759864131017248000,7.525248046875,-6.125634670257568,-5.428239822387695,5.40196418762207
1759864131027288300,7.535288330078125,-6.127066135406494,-5.431623935699463,5.396936893463135
1759864131037359000,7.545359130859375,-6.124789237976074,-5.43735933303833,5.393743991851807
1759864131047430000,7.555429931640625,-6.119491100311279,-5.445750713348389,5.391296863555908
1759864131057500700,7.565500732421875,-6.110520839691162,-5.458768367767334,5.388307094573975
1759864131087682600,7.5956826171875,-6.072024822235107,-5.518684387207031,5.370755195617676
1759864131097753300,7.60575341796875,-6.038662910461426,-5.57098388671875,5.354348182678223
1759864131107793700,7.615793701171875,-6.0268754959106445,-5.600772380828857,5.3365302085876465
1759864131117834000,7.625833984375,-6.059877872467041,-5.592942714691162,5.307288646697998
1759864131127904800,7.63590478515625,-6.054713249206543,-5.616816997528076,5.287930011749268
1759864131137975600,7.6459755859375,-6.041462421417236,-5.645750999450684,5.2722554206848145
1759864131158147600,7.666147705078125,-6.029747486114502,-5.69144344329834,5.236414432525635
1759864131168218400,7.67621826171875,-6.039760589599609,-5.700650215148926,5.214818000793457
1759864131178320000,7.68631982421875,-6.059228897094727,-5.7014384269714355,5.191318988800049
1759864131188390700,7.696390625,-6.08436918258667,-5.694631099700928,5.169332027435303
1759864131198431000,7.706430908203125,-6.11147928237915,-5.681267261505127,5.1520304679870605
1759864131208501800,7.716501708984375,-6.139893054962158,-5.660151958465576,5.141480445861816
1759864131218572500,7.726572509765625,-6.169562816619873,-5.631704807281494,5.13720178604126
1759864131228673800,7.736673828125,-6.200026035308838,-5.59812593460083,5.1372222900390625
1759864131238744600,7.74674462890625,-6.230753421783447,-5.562414646148682,5.138842582702637
1759864131248815400,7.7568154296875,-6.258589744567871,-5.528877258300781,5.141204833984375
1759864131258886100,7.76688623046875,-6.280099868774414,-5.501465320587158,5.144381999969482
1759864131268987600,7.776987548828125,-6.291919231414795,-5.481710433959961,5.151019096374512
1759864131289098500,7.797098388671875,-6.290923595428467,-5.460733890533447,5.174463748931885
1759864131299169500,7.80716943359375,-6.278844356536865,-5.459415912628174,5.190501689910889
1759864131309240300,7.817240234375,-6.247247219085693,-5.469759464263916,5.217660903930664
1759864131319341600,7.827341552734375,-6.234523296356201,-5.474635601043701,5.227759838104248
1759864131329382000,7.8373818359375,-6.211956977844238,-5.484453201293945,5.244304656982422
1759864131339452700,7.84745263671875,-6.19232177734375,-5.493496417999268,5.258053779602051
1759864131349554000,7.857553955078125,-6.176186561584473,-5.50076961517334,5.269408226013184
1759864131359624700,7.867624755859375,-6.162939548492432,-5.5064167976379395,5.27901029586792
1759864131410009300,7.91800927734375,-6.157310485839844,-5.451865196228027,5.341824054718018
1759864131420110600,7.928110595703125,-6.157269477844238,-5.44318151473999,5.3507208824157715
1759864131430181400,7.938181396484375,-6.153491973876953,-5.439700603485107,5.358600616455078
1759864131440221700,7.9482216796875,-6.144138336181641,-5.441906929016113,5.3670878410339355
1759864131450292500,7.95829248046875,-6.128857135772705,-5.448483943939209,5.3778767585754395
1759864131460393700,7.968393798828125,-6.108087062835693,-5.457823753356934,5.392014026641846
1759864131500616000,8.008615966796874,-6.00608491897583,-5.497440338134766,5.465850830078125
1759864131510717200,8.01871728515625,-5.993297100067139,-5.498998641967773,5.478302478790283
1759864131520788000,8.0287880859375,-5.993508815765381,-5.492948532104492,5.484139919281006
1759864131530858800,8.038858642578125,-6.007955074310303,-5.479274272918701,5.482012748718262
1759864131550969900,8.058969970703124,-6.065582752227783,-5.439545631408691,5.458062171936035
1759864131561010200,8.06901025390625,-6.094316005706787,-5.4213714599609375,5.444121837615967
1759864131571081000,8.0790810546875,-6.115277290344238,-5.413992404937744,5.427932262420654
1759864131581151700,8.08915185546875,-6.123887062072754,-5.423797607421875,5.408406734466553
1759864131601293300,8.109293212890625,-6.136699676513672,-5.475030899047852,5.341846942901611
1759864131611394800,8.119394775390624,-6.134784698486328,-5.492323875427246,5.326274394989014
1759864131621496000,8.12949609375,-6.133704662322998,-5.508745193481445,5.3105363845825195
1759864131631597300,8.139597412109374,-6.130288124084473,-5.521427631378174,5.3013014793396
1759864131641637600,8.1496376953125,-6.136838912963867,-5.525955677032471,5.2889885902404785
1759864131651739000,8.15973876953125,-6.147686958312988,-5.5189738273620605,5.283677101135254
1759864131661810000,8.169809814453124,-6.162374019622803,-5.505404472351074,5.280725002288818
1759864131671880700,8.179880615234374,-6.181241512298584,-5.488315105438232,5.276461601257324
1759864131681951500,8.189951416015624,-6.205566883087158,-5.468143939971924,5.268851280212402
1759864131712133400,8.22013330078125,-6.2980499267578125,-5.389725685119629,5.239828109741211
1759864131722204200,8.2302041015625,-6.327007293701172,-5.361950397491455,5.2334418296813965
1759864131732244500,8.240244384765624,-6.354537487030029,-5.33488655090332,5.2277374267578125
1759864131742345700,8.250345703125,-6.380782127380371,-5.308000564575195,5.223139762878418
1759864131752386000,8.260385986328124,-6.4041523933410645,-5.282863140106201,5.220020294189453
1759864131772558000,8.28055810546875,-6.442234039306641,-5.240087985992432,5.216277599334717
1759864131782659300,8.290659423828124,-6.451300621032715,-5.226360321044922,5.21884298324585
1759864131792699600,8.30069970703125,-6.45962381362915,-5.213151454925537,5.221754550933838
1759864131812810800,8.320810791015624,-6.468088626861572,-5.195126056671143,5.229235649108887
1759864131822851000,8.33085107421875,-6.473367214202881,-5.186908721923828,5.230865001678467
1759864131832952300,8.340952392578124,-6.479936599731445,-5.1789445877075195,5.230615615844727
1759864131843053600,8.351053466796875,-6.486833095550537,-5.172061920166016,5.228882312774658
1759864131853124600,8.36112451171875,-6.492421627044678,-5.167170524597168,5.226779460906982
1759864131863195400,8.3711953125,-6.494809150695801,-5.165022373199463,5.225935935974121
1759864131873266200,8.38126611328125,-6.493410587310791,-5.165534496307373,5.227169036865234
1759864131883306500,8.391306396484374,-6.487154960632324,-5.168184757232666,5.23231315612793
1759864131903539500,8.41153955078125,-6.459167957305908,-5.182032585144043,5.253202438354492
1759864131933782500,8.441782470703124,-6.344501972198486,-5.249843597412109,5.325118064880371
1759864131953924000,8.461924072265624,-6.270571708679199,-5.291300296783447,5.3714518547058105
1759864131964025300,8.472025390625,-6.229336261749268,-5.313821792602539,5.3971381187438965
1759864131984228000,8.49222802734375,-6.112349510192871,-5.382458686828613,5.462488651275635
1759864131994299000,8.502298828125,-6.088538646697998,-5.396949768066406,5.474762916564941
1759864132004369700,8.51236962890625,-6.043882369995117,-5.423769474029541,5.497694492340088
1759864132034612500,8.542612548828124,-5.993125915527344,-5.447497844696045,5.529702663421631
1759864132044652800,8.55265283203125,-6.010483741760254,-5.434611797332764,5.52354097366333
1759864132054754000,8.562754150390624,-6.034489154815674,-5.420027732849121,5.511684417724609
1759864132064824800,8.572824951171874,-6.059329509735107,-5.407898426055908,5.496325492858887
1759864132074895600,8.5828955078125,-6.082733154296875,-5.400324821472168,5.4778923988342285
1759864132084875000,8.592875,-6.100956439971924,-5.4007391929626465,5.457169532775879
1759864132094976300,8.602976318359374,-6.111608982086182,-5.4130988121032715,5.432953357696533
1759864132105077500,8.613077392578125,-6.116117477416992,-5.436352252960205,5.404590606689453
1759864132115179000,8.623178955078124,-6.117577075958252,-5.463588237762451,5.375397682189941
1759864132135290000,8.6432900390625,-6.1141228675842285,-5.50724983215332,5.334615707397461
1759864132145361000,8.65336083984375,-6.1005730628967285,-5.540347576141357,5.315823554992676
1759864132155431700,8.663431640625,-6.109367847442627,-5.52779483795166,5.318788051605225
1759864132165472000,8.673471923828124,-6.0939202308654785,-5.544704437255859,5.318909168243408
1759864132175573200,8.6835732421875,-6.069700717926025,-5.568732738494873,5.3215012550354
1759864132185674500,8.693674560546874,-6.0299553871154785,-5.609358787536621,5.324013710021973
1759864132195775700,8.703775634765625,-6.009738922119141,-5.631075382232666,5.3239521980285645
1759864132205816000,8.713816162109374,-6.00140905380249,-5.640292167663574,5.323592185974121
1759864132236059100,8.74405908203125,-5.9933366775512695,-5.663395404815674,5.308133602142334
1759864132246099500,8.754099365234374,-6.008673667907715,-5.653172969818115,5.3016862869262695
1759864132256170200,8.764170166015624,-6.032337665557861,-5.6352219581604,5.293924331665039
1759864132266271500,8.774271484375,-6.061684608459473,-5.611885070800781,5.285175323486328
1759864132276342300,8.78434228515625,-6.094418048858643,-5.585172176361084,5.275821685791016
1759864132286382600,8.794382568359374,-6.126124858856201,-5.559914588928223,5.265771389007568
1759864132296483800,8.80448388671875,-6.15625524520874,-5.5350565910339355,5.256815433502197
1759864132306554600,8.8145546875,-6.1951398849487305,-5.506233215332031,5.241372585296631
1759864132316625400,8.82462548828125,-6.211339473724365,-5.492805004119873,5.236291408538818
1759864132336767000,8.84476708984375,-6.224730968475342,-5.480438709259033,5.233346939086914
1759864132346837800,8.854837646484375,-6.226322174072266,-5.479597091674805,5.232336044311523
1759864132356908500,8.864908447265625,-6.221248149871826,-5.488816738128662,5.228707790374756
1759864132366948900,8.874948974609374,-6.214372158050537,-5.499814510345459,5.225330829620361
1759864132377050400,8.88505029296875,-6.207606792449951,-5.508140563964844,5.224596977233887
1759864132387182000,8.89518212890625,-6.193495750427246,-5.534832954406738,5.213120937347412
1759864132397222400,8.905222412109374,-6.180328369140625,-5.549088954925537,5.213591575622559
1759864132407293200,8.915293212890624,-6.159344673156738,-5.574169158935547,5.211671352386475
1759864132417394400,8.92539453125,-6.121532917022705,-5.612107753753662,5.215508460998535
1759864132467748600,8.97574853515625,-5.912075042724609,-5.743624210357666,5.313055515289307
1759864132477819400,8.9858193359375,-5.855442047119141,-5.782249450683594,5.333831787109375
1759864132487920600,8.995920654296874,-5.795539379119873,-5.823009490966797,5.354875087738037
1759864132497991400,9.005991455078124,-5.737561225891113,-5.861166477203369,5.375645637512207
1759864132508062200,9.016062255859374,-5.685390472412109,-5.89243221282959,5.396849632263184
1759864132518133000,9.026133056640624,-5.6450724601745605,-5.91451358795166,5.4149909019470215
1759864132528203800,9.036203857421874,-5.623623847961426,-5.924696922302246,5.426159381866455
1759864132558416100,9.066416015625,-5.6430253982543945,-5.908968925476074,5.423172950744629
1759864132568487200,9.076487060546874,-5.66441535949707,-5.897294521331787,5.413567066192627
1759864132578558000,9.086557861328124,-5.696072578430176,-5.880840301513672,5.398226737976074
1759864132588659200,9.0966591796875,-5.745131492614746,-5.854862213134766,5.374423027038574
1759864132598699500,9.106699462890624,-5.8079400062561035,-5.819657325744629,5.3450751304626465
1759864132618841000,9.126841064453124,-5.9319353103637695,-5.745108604431152,5.2892560958862305
1759864132628881400,9.13688134765625,-5.977554798126221,-5.716322422027588,5.269048690795898
1759864132649023000,9.15702294921875,-6.017481327056885,-5.685210227966309,5.257253646850586
1759864132669195000,9.177195068359374,-6.023119926452637,-5.673835277557373,5.263085842132568
1759864132679265800,9.187265869140624,-6.025115013122559,-5.669665336608887,5.265294551849365
1759864132689336600,9.197336669921874,-6.007950305938721,-5.656942367553711,5.29848051071167
1759864132699407400,9.207407470703124,-6.00404167175293,-5.650787353515625,5.309470176696777
1759864132709508900,9.2175087890625,-6.002923965454102,-5.632993221282959,5.329603672027588
1759864132719610000,9.227610107421874,-6.010146141052246,-5.608705520629883,5.347048282623291
1759864132729711400,9.23771142578125,-6.032303333282471,-5.558017730712891,5.3749589920043945
1759864132759954400,9.267954345703124,-6.058008193969727,-5.481637954711914,5.424257278442383
1759864132770025200,9.278025146484374,-6.058426856994629,-5.461678981781006,5.4438886642456055
1759864132780126500,9.28812646484375,-6.057007789611816,-5.4430108070373535,5.46412992477417
1759864132790166800,9.298166748046874,-6.054582595825195,-5.4248366355896,5.484848976135254
1759864132800207000,9.30820703125,-6.052020072937012,-5.407081127166748,5.50516939163208
1759864132810247200,9.3182470703125,-6.047886848449707,-5.390416622161865,5.526022911071777
1759864132820318200,9.328318115234374,-6.0414652824401855,-5.3760294914245605,5.5470194816589355
1759864132830389000,9.338388916015624,-6.032575607299805,-5.365345001220703,5.5670013427734375
1759864132840459800,9.348459716796874,-6.020811557769775,-5.359920978546143,5.584932327270508
1759864132850530600,9.358530517578124,-6.002883434295654,-5.355459690093994,5.60845947265625
1759864132870672100,9.378672119140624,-5.988624572753906,-5.352387428283691,5.626608371734619
1759864132880773400,9.3887734375,-5.978890895843506,-5.345829010009766,5.643168926239014
1759864132890813700,9.398813720703124,-5.972611904144287,-5.348947525024414,5.646861553192139
1759864132900915000,9.4089150390625,-5.961504936218262,-5.355870723724365,5.65203857421875
1759864132911016400,9.419016357421874,-5.938737869262695,-5.3814697265625,5.651687145233154
1759864132921117700,9.42911767578125,-5.918470859527588,-5.406353950500488,5.649196624755859
1759864132931188500,9.4391884765625,-5.902815818786621,-5.4249420166015625,5.647759437561035
1759864132941259300,9.44925927734375,-5.855896472930908,-5.47031831741333,5.652827739715576
1759864132981572900,9.48957275390625,-5.612869739532471,-5.664327144622803,5.7080183029174805
1759864132991674400,9.49967431640625,-5.574214935302734,-5.693479061126709,5.716890335083008
1759864133001745200,9.5097451171875,-5.459568977355957,-5.7804646492004395,5.740187644958496
1759864133011846400,9.519846435546874,-5.420079708099365,-5.80872106552124,5.749077796936035
1759864133021947600,9.52994775390625,-5.343705654144287,-5.860866069793701,5.767622947692871
1759864133031988000,9.539988037109374,-5.248109817504883,-5.916463851928711,5.7985520362854
1759864133062200300,9.570200439453124,-5.164950847625732,-5.9527788162231445,5.83593225479126
1759864133072271000,9.58027099609375,-5.153121471405029,-5.955479621887207,5.843630790710449
1759864133082372600,9.59037255859375,-5.144165515899658,-5.954884052276611,5.852120876312256
1759864133092443400,9.600443359375,-5.141818046569824,-5.954898834228516,5.854170799255371
1759864133102483700,9.610483642578124,-5.132435321807861,-5.957748889923096,5.85950231552124
1759864133112554500,9.620554443359374,-5.122097015380859,-5.961880207061768,5.864342212677002
1759864133122625300,9.630625244140624,-5.108493328094482,-5.967724323272705,5.870260715484619
1759864133132696000,9.640696044921874,-5.108503818511963,-5.969274520874023,5.868677139282227
1759864133183111200,9.691111083984374,-5.110583782196045,-5.972601890563965,5.86347770690918
1759864133193182000,9.701181884765624,-5.127202987670898,-5.964999198913574,5.856706142425537
1759864133203252700,9.711252685546874,-5.154163360595703,-5.950071334838867,5.848216533660889
1759864133213293000,9.72129296875,-5.183430194854736,-5.931278705596924,5.841436386108398
1759864133223333000,9.7313330078125,-5.205691814422607,-5.919933319091797,5.833141803741455
1759864133233434600,9.7414345703125,-5.229243278503418,-5.90929651260376,5.82285737991333
1759864133243505400,9.75150537109375,-5.259757995605469,-5.896082878112793,5.808750629425049
1759864133273809400,9.781809326171874,-5.363239288330078,-5.850338935852051,5.760170936584473
1759864133283910700,9.79191064453125,-5.400070667266846,-5.832992076873779,5.743332386016846
1759864133294012000,9.802011962890624,-5.437260150909424,-5.813934803009033,5.727547645568848
1759864133304113200,9.812113037109375,-5.473797798156738,-5.795529842376709,5.71136999130249
1759864133314214700,9.822214599609374,-5.5273284912109375,-5.766439437866211,5.689222812652588
1759864133324285400,9.832285400390624,-5.557487487792969,-5.750335216522217,5.676122188568115
1759864133334356200,9.842356201171874,-5.569852828979492,-5.743781566619873,5.670637130737305
1759864133344457500,9.85245751953125,-5.588922500610352,-5.735696315765381,5.660046577453613
1759864133354558700,9.862558837890624,-5.598222732543945,-5.733953952789307,5.652616024017334
1759864133384771300,9.892771240234374,-5.579614639282227,-5.763380527496338,5.641078948974609
1759864133394872600,9.90287255859375,-5.562539577484131,-5.7794508934021,5.64149808883667
1759864133404913000,9.912912841796874,-5.541941165924072,-5.797667503356934,5.643081188201904
1759864133415014100,9.92301416015625,-5.5196428298950195,-5.816367149353027,5.645694732666016
1759864133425115400,9.933115478515624,-5.498308181762695,-5.8327836990356445,5.649568557739258
1759864133435217000,9.943216796875,-5.478623867034912,-5.847107410430908,5.653885841369629
1759864133445287700,9.95328759765625,-5.460771560668945,-5.859480857849121,5.658349514007568
1759864133455389000,9.963388916015624,-5.447713851928711,-5.867588043212891,5.662525653839111
1759864133475591400,9.98359130859375,-5.442409992218018,-5.857563018798828,5.677989482879639
1759864133485631700,9.9936318359375,-5.442664623260498,-5.846958160400391,5.688663482666016
1759864133495733200,10.003733154296874,-5.445729732513428,-5.836175441741943,5.696797847747803
1759864133505804000,10.013803955078124,-5.448305130004883,-5.825537204742432,5.7052154541015625
1759864133515874800,10.023874755859374,-5.448780536651611,-5.81576681137085,5.714719772338867
1759864133525884400,10.033884521484374,-5.44774055480957,-5.8059282302856445,5.725708961486816
1759864133535955200,10.043955078125,-5.446978569030762,-5.795747756958008,5.7367329597473145
1759864133546026000,10.05402587890625,-5.448729515075684,-5.784317493438721,5.746603012084961
1759864133556127500,10.06412744140625,-5.453400135040283,-5.770941257476807,5.755608081817627
1759864133586309400,10.094309326171874,-5.481289386749268,-5.717013359069824,5.782872676849365
1759864133596410600,10.10441064453125,-5.48220157623291,-5.700924396514893,5.7978715896606445
1759864133606481400,10.1144814453125,-5.473819255828857,-5.689797401428223,5.816690921783447
1759864133616552200,10.12455224609375,-5.459805011749268,-5.683315277099609,5.8361639976501465
1759864133626623000,10.134623046875,-5.440152168273926,-5.681525230407715,5.856225967407227
1759864133636693800,10.14469384765625,-5.415612697601318,-5.6842546463012695,5.876292705535889
1759864133646734000,10.154734130859374,-5.388692855834961,-5.687803268432617,5.8975629806518555
1759864133656835300,10.16483544921875,-5.360244274139404,-5.690548419952393,5.920801639556885
1759864133676946400,10.184946533203124,-5.312014579772949,-5.688563823699951,5.965996265411377
1759864133686986800,10.19498681640625,-5.290699005126953,-5.682734966278076,5.990442276000977
1759864133697088000,10.205087890625,-5.284567356109619,-5.679178714752197,5.9992241859436035
1759864133707159000,10.215158935546874,-5.288134574890137,-5.679016590118408,5.996230602264404
1759864133717199000,10.22519921875,-5.289366722106934,-5.682287693023682,5.992044448852539
1759864133727209000,10.235208984375,-5.303341865539551,-5.6976823806762695,5.965012073516846
1759864133737310200,10.245310302734374,-5.305111408233643,-5.704187393188477,5.957218170166016
1759864133747411700,10.25541162109375,-5.306319236755371,-5.707440376281738,5.953023910522461
1759864133757482500,10.265482421875,-5.3083648681640625,-5.707518100738525,5.95112419128418
1759864133797765600,10.305765625,-5.418323993682861,-5.6699066162109375,5.887642860412598
1759864133807775500,10.315775390625,-5.477545738220215,-5.6406755447387695,5.860857963562012
1759864133817876700,10.325876708984374,-5.518529891967773,-5.622091770172119,5.840231418609619
1759864133827978000,10.33597802734375,-5.539128303527832,-5.6130595207214355,5.829412937164307
1759864133838018300,10.346018310546874,-5.576896667480469,-5.597722053527832,5.808107852935791
1759864133848089000,10.356089111328124,-5.6125946044921875,-5.58514404296875,5.7857890129089355
1759864133858129400,10.36612939453125,-5.6438493728637695,-5.575551509857178,5.76460075378418
1759864133888250000,10.39625,-5.701125144958496,-5.563776016235352,5.719438076019287
1759864133908422400,10.41642236328125,-5.725259780883789,-5.562906742095947,5.69612455368042
1759864133928533500,10.436533447265624,-5.755948066711426,-5.554244518280029,5.673609256744385
1759864133938634800,10.446634765625,-5.774200916290283,-5.54769229888916,5.661460876464844
1759864133948736000,10.456736083984374,-5.791701793670654,-5.541229724884033,5.649897575378418
1759864133958776300,10.4667763671875,-5.807807922363281,-5.5345001220703125,5.639950752258301
1759864133968847000,10.47684716796875,-5.820958614349365,-5.528116226196289,5.632649898529053
1759864133999090200,10.507090087890624,-5.829099178314209,-5.522356033325195,5.629884719848633
1759864134009130200,10.517130126953125,-5.817788600921631,-5.528281211853027,5.635768890380859
1759864134019231700,10.527231689453124,-5.787847518920898,-5.546719551086426,5.648460388183594
1759864134029302500,10.537302490234374,-5.766966819763184,-5.557558059692383,5.659158229827881
1759864134039373300,10.547373291015624,-5.745911121368408,-5.568431854248047,5.669872283935547
1759864134049444000,10.557444091796874,-5.720307350158691,-5.580611228942871,5.683770656585693
1759864134059545300,10.56754541015625,-5.689239501953125,-5.594858169555664,5.7009196281433105
1759864134079687000,10.58768701171875,-5.6177825927734375,-5.626382827758789,5.74061918258667
1759864134099859200,10.607859130859374,-5.559570789337158,-5.647765636444092,5.776184558868408
1759864134109899500,10.6178994140625,-5.544755935668945,-5.650218963623047,5.788013458251953
1759864134119970300,10.62797021484375,-5.537249565124512,-5.64906644821167,5.796315670013428
1759864134130041000,10.638041015625,-5.532209873199463,-5.647378921508789,5.802773475646973
1759864134140081200,10.6480810546875,-5.521965503692627,-5.64970588684082,5.810256004333496
1759864134150152200,10.658152099609374,-5.500733852386475,-5.658603191375732,5.821730613708496
1759864134160223000,10.668222900390624,-5.470071792602539,-5.67360782623291,5.835998058319092
1759864134180334000,10.688333984375,-5.3884077072143555,-5.716223239898682,5.870284557342529
1759864134190404900,10.69840478515625,-5.346316337585449,-5.740126609802246,5.885426044464111
1759864134200506000,10.708506103515624,-5.290130615234375,-5.770061016082764,5.906890869140625
1759864134210546400,10.71854638671875,-5.27608585357666,-5.776902198791504,5.912763595581055
1759864134220647700,10.728647705078124,-5.253914833068848,-5.787863254547119,5.921777248382568
1759864134230749000,10.7387490234375,-5.243885040283203,-5.79393196105957,5.924731731414795
1759864134240789200,10.748789306640624,-5.249599456787109,-5.790780067443848,5.9227519035339355
1759864134250860000,10.758860107421874,-5.261648654937744,-5.783552646636963,5.919118881225586
1759864134260961300,10.768961181640625,-5.295255661010742,-5.7645087242126465,5.907716274261475
1759864134301214200,10.809214111328124,-5.421663761138916,-5.708368301391602,5.847262859344482
1759864134311285000,10.819284912109374,-5.445525169372559,-5.701969623565674,5.831310749053955
1759864134321325000,10.829324951171875,-5.475017070770264,-5.692617893218994,5.812802791595459
1759864134331396000,10.83939599609375,-5.481539249420166,-5.689475059509277,5.809736728668213
1759864134341497300,10.849497314453124,-5.496354579925537,-5.6839823722839355,5.801103591918945
1759864134351568100,10.859568115234374,-5.508275032043457,-5.676883220672607,5.796751499176025
1759864134361639000,10.869638916015624,-5.527508735656738,-5.664518356323242,5.790529251098633
1759864134371679200,10.87967919921875,-5.5564680099487305,-5.646051406860352,5.780844211578369
1759864134411992800,10.919992919921874,-5.693328857421875,-5.551973342895508,5.738640785217285
1759864134422063600,10.930063720703124,-5.740653991699219,-5.513757228851318,5.72833251953125
1759864134442174700,10.9501748046875,-5.775110244750977,-5.479104518890381,5.7269511222839355
1759864134452276200,10.960276123046874,-5.780214309692383,-5.472031116485596,5.728560924530029
1759864134462347000,10.970346923828124,-5.792376518249512,-5.450401306152344,5.73689079284668
1759864134472417800,10.980417724609374,-5.801403045654297,-5.4332966804504395,5.743991374969482
1759864134502630100,11.010630126953124,-5.824596405029297,-5.38557767868042,5.7654194831848145
1759864134512701000,11.020700927734374,-5.829263687133789,-5.369694232940674,5.775505542755127
1759864134522771700,11.030771728515624,-5.831231594085693,-5.356839179992676,5.7854461669921875
1759864134542943700,11.05094384765625,-5.79970121383667,-5.3464226722717285,5.826630115509033
1759864134553014500,11.0610146484375,-5.804028511047363,-5.337166786193848,5.830810546875
1759864134563085300,11.071085205078125,-5.8129096031188965,-5.330463409423828,5.828089714050293
1759864134573125600,11.081125732421874,-5.823118686676025,-5.330318927764893,5.818027019500732
1759864134613439500,11.121439453125,-5.7950873374938965,-5.385237693786621,5.795392990112305
1759864134623510300,11.13151025390625,-5.789656162261963,-5.407774448394775,5.779812812805176
1759864134633581000,11.1415810546875,-5.797815799713135,-5.421388626098633,5.758845329284668
1759864134643682300,11.151682373046874,-5.811907768249512,-5.427556991577148,5.73879337310791
1759864134653753000,11.161753173828124,-5.823845863342285,-5.4359564781188965,5.718701362609863
1759864134663854600,11.1718544921875,-5.82164192199707,-5.444121837615967,5.7131805419921875
1759864134673925400,11.18192529296875,-5.813210487365723,-5.454504489898682,5.711863994598389
1759864134704168200,11.212168212890624,-5.785163879394531,-5.477509021759033,5.718320369720459
1759864134714239000,11.222239013671874,-5.769678115844727,-5.482234954833984,5.729426383972168
1759864134724309800,11.232309814453124,-5.729719638824463,-5.489804744720459,5.7621846199035645
1759864134734380500,11.242380615234374,-5.720369815826416,-5.494287967681885,5.7671966552734375
1759864134744420900,11.2524208984375,-5.684891700744629,-5.502849102020264,5.794055938720703
1759864134754491600,11.26249169921875,-5.6431121826171875,-5.5096259117126465,5.828351020812988
1759864134764593000,11.272593017578124,-5.573848247528076,-5.516408920288086,5.888278484344482
1759864134774694400,11.2826943359375,-5.55359411239624,-5.519155502319336,5.904820442199707
1759864134784765200,11.29276513671875,-5.5101799964904785,-5.5197248458862305,5.944826602935791
1759864134814947000,11.322947021484374,-5.47925329208374,-5.490439414978027,6.000269889831543
1759864134824987400,11.3329873046875,-5.495034694671631,-5.459015846252441,6.014495849609375
1759864134835027500,11.34302734375,-5.5227370262146,-5.447757720947266,5.999309539794922
1759864134845067800,11.35306787109375,-5.6024699211120605,-5.403879642486572,5.964964866638184
1759864134855169300,11.363169189453124,-5.636096000671387,-5.390605449676514,5.9452667236328125
1759864134865270500,11.3732705078125,-5.703365325927734,-5.348775386810303,5.918839454650879
1759864134875310800,11.383310791015624,-5.737884044647217,-5.328314781188965,5.9039106369018555
1759864134885412000,11.393412109375,-5.764288425445557,-5.313423156738281,5.891597747802734
1759864134905553700,11.4135537109375,-5.795100688934326,-5.297250747680664,5.875916481018066
1759864134925787000,11.433786865234374,-5.838085651397705,-5.278634548187256,5.850057601928711
1759864134935888100,11.44388818359375,-5.845544338226318,-5.275546073913574,5.845393180847168
1759864134945928400,11.453928466796874,-5.858864784240723,-5.26955509185791,5.837452411651611
1759864134956029700,11.46402978515625,-5.86907958984375,-5.26503324508667,5.831272125244141
1759864134966100500,11.4741005859375,-5.879444122314453,-5.261729717254639,5.8238067626953125
1759864134976140800,11.484140869140624,-5.88088321685791,-5.262362480163574,5.821784496307373
1759864135016424000,11.524423828125,-5.888476371765137,-5.284826755523682,5.79369592666626
1759864135026495000,11.534494873046874,-5.8879570960998535,-5.297244548797607,5.782866954803467
1759864135036596200,11.54459619140625,-5.887077808380127,-5.311108589172363,5.771034240722656
1759864135046636500,11.554636474609374,-5.885007381439209,-5.325919151306152,5.759486675262451
1759864135056707300,11.564707275390624,-5.880774974822998,-5.348464012145996,5.742894172668457
1759864135066808600,11.57480859375,-5.873955249786377,-5.3672332763671875,5.732350826263428
1759864135076879400,11.58487939453125,-5.863032817840576,-5.38830041885376,5.72376012802124
1759864135086858500,11.5948583984375,-5.842087268829346,-5.416616439819336,5.71845006942749
1759864135127142000,11.635141845703124,-5.727187633514404,-5.527396202087402,5.728668212890625
1759864135147314000,11.65531396484375,-5.6520490646362305,-5.588461399078369,5.7440266609191895
1759864135167486000,11.67548583984375,-5.581408977508545,-5.651751518249512,5.7511725425720215
1759864135177557000,11.685556884765624,-5.558237552642822,-5.676170349121094,5.749568939208984
1759864135187627800,11.695627685546874,-5.546195030212402,-5.693968772888184,5.743592739105225
1759864135197729000,11.70572900390625,-5.543536186218262,-5.705388069152832,5.7348198890686035
1759864135227849700,11.735849609375,-5.559677600860596,-5.735311508178711,5.689161777496338
1759864135237951200,11.745951171875,-5.570620059967041,-5.742592811584473,5.671088218688965
1759864135248022000,11.75602197265625,-5.585158824920654,-5.746114253997803,5.653192043304443
1759864135258062300,11.766062255859374,-5.5984578132629395,-5.750102519989014,5.635954856872559
1759864135268133000,11.776133056640624,-5.610355854034424,-5.754978656768799,5.619120121002197
1759864135278234400,11.786234375,-5.620159149169922,-5.760100841522217,5.6040544509887695
1759864135288244200,11.796244140625,-5.632040500640869,-5.763601779937744,5.588505744934082
1759864135298345500,11.806345458984374,-5.646015167236328,-5.762765884399414,5.57525110244751
1759864135318517500,11.826517578125,-5.64384651184082,-5.773351669311523,5.5664896965026855
1759864135328588300,11.83658837890625,-5.637485027313232,-5.782155513763428,5.563792705535889
1759864135338689800,11.846689697265624,-5.617917060852051,-5.795405387878418,5.569799900054932
1759864135348760600,11.856760498046874,-5.616022109985352,-5.7941789627075195,5.572986602783203
1759864135358861800,11.86686181640625,-5.594042778015137,-5.8023529052734375,5.586575508117676
1759864135368902100,11.876902099609374,-5.556211948394775,-5.8188395500183105,5.6071391105651855
1759864135379003400,11.88700341796875,-5.51724100112915,-5.834283828735352,5.6295294761657715
1759864135389043700,11.897043701171874,-5.484222888946533,-5.846085071563721,5.649510383605957
1759864135399145000,11.90714501953125,-5.461522102355957,-5.852065563201904,5.665288925170898
1759864135409185300,11.917185302734374,-5.447103500366211,-5.848838806152344,5.682477951049805
1759864135429357300,11.937357421875,-5.45278787612915,-5.829432964324951,5.696939945220947
1759864135449468400,11.957468505859374,-5.47245454788208,-5.806412220001221,5.701597690582275
1759864135459570000,11.96756982421875,-5.492851257324219,-5.787591457366943,5.701122760772705
1759864135469671200,11.977671142578124,-5.5142340660095215,-5.768527507781982,5.699803352355957
1759864135479742000,11.987741943359374,-5.53237247467041,-5.752212047576904,5.698713302612305
1759864135489812700,11.997812744140624,-5.54564094543457,-5.739567279815674,5.698566436767578
1759864135499883500,12.007883544921874,-5.553487777709961,-5.731378555297852,5.6991658210754395
1759864135520055600,12.0280556640625,-5.554625511169434,-5.724773406982422,5.704690933227539
1759864135530126300,12.038126220703125,-5.552017688751221,-5.72395658493042,5.708049297332764
1759864135540197000,12.048197021484375,-5.550053596496582,-5.722816467285156,5.7111005783081055
1759864135550268200,12.05826806640625,-5.550882816314697,-5.720810413360596,5.712307453155518
1759864135560339000,12.0683388671875,-5.5529327392578125,-5.719935417175293,5.711184501647949
1759864135570409700,12.07840966796875,-5.557628154754639,-5.719712734222412,5.70684289932251
1759864135580480500,12.08848046875,-5.557959079742432,-5.723137855529785,5.703085899353027
1759864135590520800,12.098520751953124,-5.5541791915893555,-5.72638463973999,5.703510284423828
1759864135600622000,12.1086220703125,-5.548556804656982,-5.730021953582764,5.70532751083374
1759864135620763600,12.128763671875,-5.525787353515625,-5.739107608795166,5.7182817459106445
1759864135640874800,12.148874755859374,-5.469050407409668,-5.746878623962402,5.764833927154541
1759864135650915000,12.1589150390625,-5.442180156707764,-5.749086380004883,5.788012981414795
1759864135661016300,12.169016357421874,-5.41618013381958,-5.7512736320495605,5.810186386108398
1759864135671087000,12.179087158203124,-5.391420364379883,-5.752569198608398,5.831890106201172
1759864135681188400,12.189188232421875,-5.360724925994873,-5.748869895935059,5.8637471199035645
1759864135691259100,12.199259033203125,-5.3478007316589355,-5.747212886810303,5.877155303955078
1759864135701330200,12.209330078125,-5.330114364624023,-5.74096155166626,5.899292945861816
1759864135731573000,12.239572998046874,-5.294408321380615,-5.7181596755981445,5.953347206115723
1759864135741643800,12.249643798828124,-5.29171895980835,-5.707388877868652,5.966055870056152
1759864135751714600,12.259714599609374,-5.29981803894043,-5.6872711181640625,5.978067874908447
1759864135761815800,12.26981591796875,-5.304527282714844,-5.680141925811768,5.98067045211792
1759864135771886600,12.279886474609375,-5.320366382598877,-5.6642937660217285,5.981631755828857
1759864135781988000,12.289988037109374,-5.35815954208374,-5.634146213531494,5.976362705230713
1759864135792059000,12.300058837890624,-5.374903202056885,-5.622354984283447,5.9724321365356445
1759864135802129700,12.310129638671874,-5.407538890838623,-5.599325656890869,5.964602947235107
1759864135832372500,12.34037255859375,-5.494723320007324,-5.541745185852051,5.9386420249938965
1759864135862584800,12.370584716796875,-5.500358581542969,-5.5340166091918945,5.940629482269287
1759864135872655600,12.380655517578125,-5.491801738739014,-5.538533687591553,5.944339752197266
1759864135882726700,12.3907265625,-5.48682165145874,-5.549095630645752,5.939085960388184
1759864135892797400,12.40079736328125,-5.46215295791626,-5.560152530670166,5.951469898223877
1759864135902898700,12.410898681640624,-5.456588268280029,-5.562449932098389,5.9544291496276855
1759864135912969500,12.420969482421874,-5.450687885284424,-5.55589485168457,5.965941905975342
1759864135943212300,12.45121240234375,-5.495572090148926,-5.499330043792725,5.977158546447754
1759864135953283000,12.461282958984375,-5.525890350341797,-5.468464374542236,5.977523326873779
1759864135963354000,12.47135400390625,-5.559074878692627,-5.434485912322998,5.977748870849609
1759864135973394200,12.481394287109374,-5.603952884674072,-5.388146877288818,5.977787017822266
1759864135983465000,12.49146484375,-5.630188465118408,-5.361109256744385,5.977449417114258
1759864135993535700,12.50153564453125,-5.655044078826904,-5.335286617279053,5.977088928222656
1759864136003637200,12.51163720703125,-5.667299747467041,-5.322786331176758,5.976626396179199
1759864136013646800,12.521646728515625,-5.693821907043457,-5.2967119216918945,5.974583148956299
1759864136064001000,12.5720009765625,-5.825647354125977,-5.181247711181641,5.948689937591553
1759864136074071800,12.58207177734375,-5.844732284545898,-5.164449691772461,5.9445695877075195
1759864136084112100,12.592112060546874,-5.860565662384033,-5.149157524108887,5.94225549697876
1759864136094213400,12.60221337890625,-5.871705532073975,-5.137500286102295,5.941342353820801
1759864136104314600,12.612314697265624,-5.876486301422119,-5.131896018981934,5.941460609436035
1759864136114385400,12.622385498046874,-5.868612289428711,-5.1383137702941895,5.943695545196533
1759864136124456200,12.632456298828124,-5.852800369262695,-5.152619361877441,5.946902275085449
1759864136154607600,12.662607666015624,-5.792194843292236,-5.218527317047119,5.948771953582764
1759864136164678400,12.672678466796874,-5.777697563171387,-5.236105442047119,5.947420120239258
1759864136174749200,12.682749267578124,-5.760808944702148,-5.254607677459717,5.947481632232666
1759864136184789500,12.69278955078125,-5.747091770172119,-5.268065452575684,5.948848724365234
1759864136194860300,12.7028603515625,-5.724222183227539,-5.286661148071289,5.954402923583984
1759864136204931000,12.71293115234375,-5.696268081665039,-5.306836128234863,5.9632568359375
1759864136215001900,12.723001953125,-5.661102294921875,-5.3303327560424805,5.975776672363281
1759864136225072600,12.73307275390625,-5.618759632110596,-5.35770320892334,5.991237640380859
1759864136235143400,12.743143310546875,-5.570513725280762,-5.387993335723877,6.009101390838623
1759864136265417000,12.7734169921875,-5.414340019226074,-5.483996868133545,6.064742565155029
1759864136275457300,12.783457275390624,-5.359075546264648,-5.5204176902771,6.0807623863220215
1759864136285558500,12.79355859375,-5.3333611488342285,-5.539392948150635,6.086118221282959
1759864136295598800,12.803598876953124,-5.315826416015625,-5.554877758026123,6.087342739105225
1759864136305669600,12.813669677734374,-5.319299697875977,-5.562268257141113,6.077554702758789
1759864136315740400,12.823740478515624,-5.32850980758667,-5.563619136810303,6.068235874176025
1759864136325811200,12.833811279296874,-5.345609188079834,-5.565554141998291,6.051399230957031
1759864136335912700,12.84391259765625,-5.371772766113281,-5.564659118652344,6.029016494750977
1759864136376287200,12.884287353515624,-5.478898048400879,-5.5858917236328125,5.911842346191406
1759864136386388700,12.894388671875,-5.498895168304443,-5.602951526641846,5.877030849456787
1759864136396459500,12.90445947265625,-5.525384902954102,-5.626950263977051,5.829061508178711
1759864136406530300,12.9145302734375,-5.552730083465576,-5.622972011566162,5.806876182556152
1759864136416631600,12.924631591796874,-5.5619049072265625,-5.6202802658081055,5.800692558288574
1759864136436773000,12.944773193359374,-5.55564546585083,-5.647247791290283,5.780467987060547
1759864136477087000,12.9850869140625,-5.477283000946045,-5.727695465087891,5.776091575622559
1759864136497289500,13.00528955078125,-5.44417142868042,-5.754173278808594,5.781078815460205
1759864136507360300,13.0153603515625,-5.437783718109131,-5.759164333343506,5.7821245193481445
1759864136517461800,13.025461669921874,-5.445977687835693,-5.753451824188232,5.780099868774414
1759864136527532500,13.035532470703124,-5.452551364898682,-5.74867057800293,5.778652667999268
1759864136537603300,13.045603271484374,-5.470343589782715,-5.735570907592773,5.774853229522705
1759864136547704600,13.05570458984375,-5.489380359649658,-5.721716403961182,5.770534515380859
1759864136598119700,13.10611962890625,-5.557049751281738,-5.6956095695495605,5.731460094451904
1759864136628332000,13.13633203125,-5.624736309051514,-5.695607662200928,5.665049076080322
1759864136638372400,13.146372314453124,-5.649926662445068,-5.690689563751221,5.644895553588867
1759864136648382000,13.1563818359375,-5.674812316894531,-5.683465957641602,5.627175807952881
1759864136688665300,13.196665283203124,-5.7292704582214355,-5.660193920135498,5.595359802246094
1759864136698766600,13.2067666015625,-5.7482686042785645,-5.651480197906494,5.584671974182129
1759864136708867800,13.216867919921874,-5.762490272521973,-5.643559455871582,5.578022480010986
1759864136718969300,13.22696923828125,-5.769038677215576,-5.636671543121338,5.578217506408691
1759864136729009400,13.237009521484374,-5.766746997833252,-5.6312689781188965,5.58604097366333
1759864136739111000,13.24711083984375,-5.755768299102783,-5.628990173339844,5.5996479988098145
1759864136749212200,13.257212158203124,-5.736692428588867,-5.629823207855225,5.618350982666016
1759864136789495300,13.297495361328124,-5.591531276702881,-5.667700290679932,5.725588321685791
1759864136799566000,13.307566162109374,-5.549712181091309,-5.679471015930176,5.7545366287231445
1759864136809576000,13.317575927734374,-5.508777618408203,-5.690496444702148,5.782907009124756
1759864136819707600,13.327707763671874,-5.475522518157959,-5.693299293518066,5.811662673950195
1759864136829748000,13.337748046875,-5.443274974822998,-5.695108413696289,5.840113639831543
1759864136839818800,13.34781884765625,-5.398749351501465,-5.694647312164307,5.881748676300049
1759864136849889500,13.3578896484375,-5.384789943695068,-5.694621562957764,5.8945512771606445
1759864136859991000,13.367990966796874,-5.360517501831055,-5.693545341491699,5.917669296264648
1759864136890233900,13.39823388671875,-5.2941155433654785,-5.679874897003174,5.99014139175415
1759864136900304600,13.4083046875,-5.282258987426758,-5.657524108886719,6.021678924560547
1759864136910406000,13.418406005859374,-5.275597095489502,-5.642140865325928,6.041911602020264
1759864136920476700,13.4284765625,-5.276987552642822,-5.633904933929443,6.048379898071289
1759864136930547700,13.438547607421874,-5.271724700927734,-5.6336774826049805,6.053182601928711
1759864136940649000,13.44864892578125,-5.254885673522949,-5.627444267272949,6.073584079742432
1759864136950750200,13.458750244140624,-5.236479759216309,-5.620363712310791,6.095999240875244
1759864136960851500,13.4688515625,-5.218404769897461,-5.614923000335693,6.116480350494385
1759864136991094500,13.499094482421874,-5.248073577880859,-5.596792697906494,6.107706069946289
1759864137001165300,13.509165283203124,-5.283496856689453,-5.591135501861572,6.082290172576904
1759864137011236000,13.519236083984374,-5.3353166580200195,-5.582634925842285,6.044748306274414
1759864137021337300,13.52933740234375,-5.3947319984436035,-5.565735816955566,6.007482051849365
1759864137031377700,13.539377685546874,-5.499508857727051,-5.5313873291015625,5.9438700675964355
1759864137041479000,13.54947900390625,-5.538817405700684,-5.520022392272949,5.91787576675415
1759864137051580400,13.559580322265624,-5.598674774169922,-5.491527557373047,5.887984752655029
1759864137061651200,13.569651123046874,-5.652926921844482,-5.464132308959961,5.861572742462158
1759864137091863600,13.599863525390624,-5.768401145935059,-5.405757904052734,5.802906036376953
1759864137101964800,13.60996484375,-5.784423351287842,-5.402653694152832,5.789834499359131
1759864137112035600,13.62003564453125,-5.791618824005127,-5.402421474456787,5.782850742340088
1759864137122106400,13.6301064453125,-5.805617809295654,-5.402785778045654,5.76846170425415
1759864137132207900,13.640207763671874,-5.8214802742004395,-5.402879238128662,5.752359390258789
1759864137142248000,13.650248046875,-5.839662551879883,-5.400803089141846,5.73585844039917
1759864137152318700,13.660318603515625,-5.859954833984375,-5.395296096801758,5.720325946807861
1759864137162420200,13.670420166015624,-5.8821282386779785,-5.386308670043945,5.706017017364502
1759864137192563000,13.70056298828125,-5.9444780349731445,-5.357769966125488,5.668148517608643
1759864137202634000,13.710634033203124,-5.958153247833252,-5.352962493896484,5.658322811126709
1759864137212674000,13.720674072265625,-5.964823246002197,-5.351579189300537,5.6525983810424805
1759864137222775600,13.730775634765624,-5.962438583374023,-5.3536577224731445,5.653146743774414
1759864137232846300,13.740846435546874,-5.949727535247803,-5.358929634094238,5.661540985107422
1759864137242947600,13.750947509765625,-5.908287525177002,-5.374250411987305,5.690340995788574
1759864137253018400,13.761018310546875,-5.886158466339111,-5.383991241455078,5.704047203063965
1759864137263058700,13.77105859375,-5.871533393859863,-5.390803337097168,5.7126851081848145
1759864137273129500,13.78112939453125,-5.85700798034668,-5.397244930267334,5.721503257751465
1759864137293301500,13.801301513671875,-5.823958396911621,-5.416078090667725,5.737424850463867
1759864137313443000,13.821443115234375,-5.759805202484131,-5.460184097290039,5.760336875915527
1759864137323514000,13.83151416015625,-5.743321418762207,-5.471855640411377,5.765712261199951
1759864137333554200,13.84155419921875,-5.713873863220215,-5.492434501647949,5.775403022766113
1759864137343625000,13.851625,-5.685893535614014,-5.512507915496826,5.78387975692749
1759864137353696000,13.861696044921874,-5.664502143859863,-5.527975559234619,5.790105819702148
1759864137363766800,13.871766845703124,-5.650010108947754,-5.5394487380981445,5.793295860290527
1759864137373806800,13.881806884765625,-5.641648769378662,-5.547436714172363,5.7938032150268555
1759864137393979100,13.901979248046874,-5.634596824645996,-5.55624532699585,5.792222023010254
1759864137404080400,13.912080322265625,-5.634961128234863,-5.561618328094482,5.786715984344482
1759864137414120700,13.92212060546875,-5.637379169464111,-5.574499607086182,5.771944046020508
1759864137424191500,13.93219140625,-5.640054702758789,-5.5791335105896,5.764848232269287
1759864137434292700,13.942292724609375,-5.641268253326416,-5.5930256843566895,5.750180244445801
1759864137444333000,13.9523330078125,-5.636795520782471,-5.613007545471191,5.735072135925293
1759864137454373400,13.962373291015625,-5.618342876434326,-5.654623508453369,5.712257385253906
1759864137464444200,13.972444091796875,-5.618147850036621,-5.667099475860596,5.70006799697876
1759864137474515000,13.982514892578125,-5.612365245819092,-5.693601131439209,5.679319381713867
1759864137514828800,14.022828857421874,-5.673818111419678,-5.707146167755127,5.60416841506958
1759864137534939600,14.042939697265625,-5.656139373779297,-5.728447437286377,5.600305080413818
1759864137545041200,14.053041259765624,-5.655334949493408,-5.729002952575684,5.600542068481445
1759864137555112000,14.06311181640625,-5.657196044921875,-5.728081226348877,5.599608898162842
1759864137585354800,14.093354736328125,-5.703404426574707,-5.689377784729004,5.59218692779541
1759864137615536600,14.12353662109375,-5.782565116882324,-5.610904216766357,5.5901780128479
1759864137625607400,14.133607421875,-5.81103515625,-5.582340240478516,5.5892534255981445
1759864137635709000,14.143708984375,-5.836670398712158,-5.55757999420166,5.587217330932617
1759864137645779700,14.15377978515625,-5.857325077056885,-5.538321495056152,5.584720611572266
1759864137655881000,14.163880859375,-5.870101451873779,-5.526472568511963,5.583047866821289
1759864137665951700,14.17395166015625,-5.870700836181641,-5.527136325836182,5.581752777099609
1759864137676053000,14.184052978515625,-5.866400241851807,-5.530905246734619,5.582549095153809
1759864137716336400,14.22433642578125,-5.7858076095581055,-5.602492809295654,5.595255374908447
1759864137726437600,14.234437744140624,-5.764469146728516,-5.624340057373047,5.595364093780518
1759864137736478000,14.24447802734375,-5.746372699737549,-5.644293785095215,5.593884468078613
1759864137746548700,14.254548828125,-5.731158256530762,-5.662128448486328,5.591466426849365
1759864137766720800,14.274720703125,-5.704847812652588,-5.687723636627197,5.592400550842285
1759864137776791600,14.28479150390625,-5.688388347625732,-5.700450420379639,5.596208095550537
1759864137806973400,14.314973388671875,-5.64312219619751,-5.689346790313721,5.653042793273926
1759864137817044200,14.325044189453125,-5.634621620178223,-5.689295291900635,5.661569118499756
1759864137827145500,14.3351455078125,-5.628818988800049,-5.6878342628479,5.66880464553833
1759864137837185800,14.345185791015625,-5.624087333679199,-5.687199115753174,5.674132823944092
1759864137847287300,14.355287353515624,-5.615506172180176,-5.6877899169921875,5.682039737701416
1759864137857388500,14.365388427734375,-5.600341320037842,-5.6912922859191895,5.693482875823975
1759864137867459300,14.375459228515625,-5.57889461517334,-5.698420524597168,5.707396984100342
1759864137877530000,14.385530029296875,-5.554091453552246,-5.7059221267700195,5.724063396453857
1759864137917843700,14.42584375,-5.476461887359619,-5.705403804779053,5.798893451690674
1759864137927914800,14.435914794921874,-5.461565017700195,-5.69318151473999,5.824891090393066
1759864137938016000,14.44601611328125,-5.4576735496521,-5.6878581047058105,5.83373498916626
1759864137948117200,14.4561171875,-5.455833435058594,-5.675297260284424,5.847675800323486
1759864137958188000,14.46618798828125,-5.463257789611816,-5.656971454620361,5.858484745025635
1759864137968258800,14.4762587890625,-5.480747222900391,-5.6313018798828125,5.866876125335693
1759864137978329600,14.48632958984375,-5.505584239959717,-5.601700305938721,5.871956825256348
1759864138008603100,14.51660302734375,-5.54772424697876,-5.5569987297058105,5.874769687652588
1759864138018674000,14.526673828125,-5.540106296539307,-5.5479936599731445,5.890448570251465
1759864138038846000,14.546845947265625,-5.539597034454346,-5.530468940734863,5.907385349273682
1759864138048916700,14.556916748046875,-5.53208589553833,-5.518633842468262,5.9254655838012695
1759864138058957000,14.56695703125,-5.532627582550049,-5.493934154510498,5.947869300842285
1759864138069058300,14.577058349609375,-5.556928634643555,-5.470310688018799,5.946987628936768
1759864138079129300,14.58712939453125,-5.5736236572265625,-5.461632251739502,5.939333915710449
1759864138089169400,14.59716943359375,-5.629820346832275,-5.423768997192383,5.9210052490234375
1759864138119382000,14.627382080078124,-5.760201930999756,-5.37064266204834,5.8435163497924805
1759864138139554000,14.647553955078125,-5.837862014770508,-5.350905895233154,5.784249782562256
1759864138149624800,14.657624755859375,-5.875093936920166,-5.339796543121338,5.75675630569458
1759864138159695600,14.667695556640625,-5.892601013183594,-5.336297512054443,5.742091655731201
1759864138169705500,14.67770556640625,-5.902274131774902,-5.336047649383545,5.73237943649292
1759864138179806700,14.687806640625,-5.905442237854004,-5.336706638336182,5.728504180908203
1759864138189877500,14.69787744140625,-5.908548831939697,-5.340963840484619,5.721328258514404
1759864138230160600,14.73816064453125,-5.913654327392578,-5.341280937194824,5.715755462646484
1759864138240231400,14.7482314453125,-5.912980079650879,-5.339916706085205,5.717721939086914
1759864138260373200,14.768373291015624,-5.9020280838012695,-5.342010021209717,5.727073669433594
1759864138270413300,14.778413330078125,-5.891129493713379,-5.346395969390869,5.734200954437256
1759864138280484000,14.788484130859375,-5.874881267547607,-5.353991508483887,5.743772983551025
1759864138290524400,14.7985244140625,-5.85237455368042,-5.365807056427002,5.755710601806641
1759864138310696700,14.81869677734375,-5.790192604064941,-5.3969221115112305,5.78941011428833
1759864138320706300,14.828706298828125,-5.7432637214660645,-5.420510292053223,5.8140716552734375
1759864138330746600,14.83874658203125,-5.689688205718994,-5.444140434265137,5.844587326049805
1759864138340847900,14.848847900390625,-5.649312496185303,-5.46062707901001,5.868322849273682
1759864138350918700,14.858918701171875,-5.607224941253662,-5.478096008300781,5.892361164093018
1759864138361020200,14.869020263671874,-5.558207035064697,-5.5024003982543945,5.916111469268799
1759864138371091000,14.879091064453124,-5.501739501953125,-5.535184383392334,5.938266277313232
1759864138381192200,14.889192138671875,-5.439826011657715,-5.575279712677002,5.957764148712158
1759864138391263000,14.899262939453125,-5.342935085296631,-5.640525817871094,5.983970642089844
1759864138401333800,14.909333740234375,-5.28563117980957,-5.6786885261535645,5.998753070831299
1759864138451688000,14.95968798828125,-5.2098236083984375,-5.727412700653076,6.018712520599365
1759864138471829500,14.97982958984375,-5.194526195526123,-5.731647491455078,6.02789306640625
1759864138481930800,14.9899306640625,-5.1754937171936035,-5.7379150390625,6.038296699523926
1759864138492032000,15.000031982421875,-5.153971195220947,-5.746253490447998,6.048767566680908
1759864138502102800,15.010102783203125,-5.1342034339904785,-5.75434684753418,6.057875633239746
1759864138522275000,15.030275146484374,-5.113027095794678,-5.7679762840271,6.062821388244629
1759864138532345900,15.040345947265624,-5.109858512878418,-5.777293682098389,6.056619644165039
1759864138542447000,15.050447021484375,-5.108795166015625,-5.789249897003174,6.04608678817749
1759864138552518000,15.060517822265625,-5.110265254974365,-5.8023176193237305,6.0323004722595215
1759864138562619100,15.070619140625,-5.113861560821533,-5.816102981567383,6.015956878662109
1759864138572720600,15.080720703125,-5.119783878326416,-5.8297553062438965,5.997680187225342
1759864138582791400,15.09079150390625,-5.131570816040039,-5.8404459953308105,5.977174282073975
1759864138592831700,15.100831787109374,-5.160608291625977,-5.843327522277832,5.949288845062256
1759864138602933000,15.11093310546875,-5.196389675140381,-5.837084770202637,5.92421817779541
1759864138633175800,15.14117578125,-5.260765552520752,-5.813766002655029,5.890237808227539
1759864138643277000,15.151277099609375,-5.273908615112305,-5.810455799102783,5.881741046905518
1759864138653317400,15.1613173828125,-5.2926177978515625,-5.7989301681518555,5.876309871673584
1759864138663388200,15.17138818359375,-5.303965091705322,-5.7943267822265625,5.870615482330322
1759864138673489700,15.18148974609375,-5.315086364746094,-5.79077672958374,5.8640594482421875
1759864138683560400,15.191560546875,-5.330276966094971,-5.784692287445068,5.8562703132629395
1759864138693631200,15.20163134765625,-5.3530707359313965,-5.773990154266357,5.846033096313477
1759864138703732500,15.211732421875,-5.385964870452881,-5.7541608810424805,5.835360527038574
1759864138713803300,15.22180322265625,-5.4263482093811035,-5.724653720855713,5.826961040496826
1759864138723874000,15.2318740234375,-5.469600677490234,-5.690162658691406,5.820305347442627
1759864138754086400,15.26208642578125,-5.575028896331787,-5.595486640930176,5.812056064605713
1759864138764188000,15.27218798828125,-5.5908284187316895,-5.573478698730469,5.81801700592041
1759864138774258700,15.2822587890625,-5.597454071044922,-5.557729721069336,5.826713562011719
1759864138784329500,15.29232958984375,-5.598455905914307,-5.546008110046387,5.8369059562683105
1759864138814541800,15.322541748046875,-5.592776298522949,-5.5222392082214355,5.86482048034668
1759864138824643000,15.33264306640625,-5.591034412384033,-5.515360355377197,5.872951984405518
1759864138834683400,15.342683349609375,-5.589761257171631,-5.507106781005859,5.881900787353516
1759864138844723700,15.3527236328125,-5.587646484375,-5.494163513183594,5.895994186401367
1759864138854764000,15.362763916015625,-5.584916591644287,-5.484433174133301,5.907636642456055
1759864138864834800,15.372834716796875,-5.582441806793213,-5.479310035705566,5.914719581604004
1759864138874905600,15.382905517578125,-5.577662467956543,-5.4685163497924805,5.929200649261475
1759864138884976400,15.392976318359375,-5.573665142059326,-5.457315444946289,5.9432597160339355
1759864138895016700,15.4030166015625,-5.568793296813965,-5.444241046905518,5.959799289703369
1759864138905087500,15.41308740234375,-5.55921745300293,-5.422768592834473,5.988245010375977
1759864138915188700,15.423188720703125,-5.537967205047607,-5.412808418273926,6.016877174377441
1759864138945431800,15.453431884765624,-5.490428447723389,-5.401050090789795,6.070769786834717
1759864138955533000,15.463532958984375,-5.442330360412598,-5.406281471252441,6.109299182891846
1759864138965603800,15.473603759765625,-5.404061794281006,-5.410879611968994,6.139130592346191
1759864138975644200,15.48364404296875,-5.369290828704834,-5.416193008422852,6.164902210235596
1759864138985745400,15.493745361328125,-5.342776298522949,-5.416810035705566,6.187350273132324
1759864138995816200,15.503816162109375,-5.3245344161987305,-5.410943031311035,6.208172798156738
1759864139005856500,15.5138564453125,-5.3125224113464355,-5.399872779846191,6.2280707359313965
1759864139015957800,15.523957763671875,-5.303040981292725,-5.384924411773682,6.249061107635498
1759864139076413200,15.5844130859375,-5.080669403076172,-5.346338748931885,6.463268280029297
1759864139086453500,15.59445361328125,-5.011733055114746,-5.3517866134643555,6.512399673461914
1759864139096493800,15.604493896484374,-4.936722278594971,-5.3592119216918945,6.563383102416992
1759864139106534000,15.614533935546875,-4.811978340148926,-5.375906467437744,6.641902923583984
1759864139116605000,15.62460498046875,-4.770889759063721,-5.382091045379639,6.666491508483887
1759864139166989300,15.6749892578125,-4.7797651290893555,-5.256360054016113,6.75980281829834
1759864139177060000,15.68506005859375,-4.797679901123047,-5.216170787811279,6.77821683883667
1759864139187131000,15.695130859375,-4.810947895050049,-5.184851169586182,6.792821884155273
1759864139207333600,15.715333740234374,-4.811202526092529,-5.160804748535156,6.81093692779541
1759864139217374000,15.7253740234375,-4.800505638122559,-5.159140110015869,6.819737911224365
1759864139247586300,15.75558642578125,-4.909406661987305,-5.134362697601318,6.760656356811523
1759864139257657000,15.765656982421875,-5.020444393157959,-5.098729610443115,6.7058539390563965
1759864139267758300,15.77575830078125,-5.15542459487915,-5.053870677947998,6.637048721313477
1759864139277859600,15.785859619140625,-5.348851203918457,-4.984527587890625,6.535646438598633
1759864139287930600,15.7959306640625,-5.403570175170898,-4.9712724685668945,6.500640392303467
1759864139298001400,15.80600146484375,-5.524238109588623,-4.954527378082275,6.411383628845215
1759864139308072200,15.816072265625,-5.561516761779785,-4.950603008270264,6.382122993469238
1759864139318143000,15.82614306640625,-5.640194416046143,-4.949694633483887,6.313413619995117
1759864139358426000,15.866426025390625,-5.823666572570801,-4.935474872589111,6.156004428863525
1759864139368497000,15.876496826171875,-5.861318588256836,-4.929912567138672,6.124646186828613
1759864139378567700,15.886567626953125,-5.891693115234375,-4.927571773529053,6.097325801849365
1759864139388638500,15.896638427734375,-5.903375625610352,-4.928112506866455,6.085579872131348
1759864139408749600,15.91674951171875,-5.942846775054932,-4.936991214752197,6.039793491363525
1759864139418850800,15.926850830078125,-5.948561668395996,-4.941249370574951,6.030675411224365
1759864139428921600,15.936921630859375,-5.949420928955078,-4.944294452667236,6.0273308753967285
1759864139438992400,15.946992431640625,-5.9460673332214355,-4.94596004486084,6.029273986816406
1759864139469174300,15.97717431640625,-5.918630123138428,-4.949831008911133,6.053049087524414
1759864139479245300,15.987245361328124,-5.888620853424072,-4.9615678787231445,6.072673320770264
1759864139489346600,15.9973466796875,-5.834776878356934,-4.990300178527832,6.101040840148926
1759864139499447800,16.00744775390625,-5.788130283355713,-5.007882595062256,6.130987644195557
1759864139509488000,16.017488037109374,-5.734724998474121,-5.029632568359375,6.1632890701293945
1759864139529629700,16.037629638671874,-5.610397815704346,-5.08206844329834,6.234295845031738
1759864139559872500,16.06787255859375,-5.442172050476074,-5.152820110321045,6.324681282043457
1759864139569974000,16.07797412109375,-5.4030303955078125,-5.170241355895996,6.343997001647949
1759864139580044800,16.088044921875,-5.391811847686768,-5.180769443511963,6.344950199127197
1759864139590146000,16.09814599609375,-5.373767375946045,-5.189271926879883,6.353302001953125
1759864139600216800,16.108216796875,-5.354671955108643,-5.199147701263428,6.3613457679748535
1759864139610257200,16.118257080078124,-5.334810733795166,-5.216383934020996,6.363924503326416
1759864139630398700,16.138398681640624,-5.281226634979248,-5.27197790145874,6.36280632019043
1759864139680752600,16.188752685546874,-5.161721706390381,-5.414641380310059,6.341034889221191
1759864139690793000,16.19879296875,-5.156282901763916,-5.445281028747559,6.319184303283691
1759864139700863700,16.20886376953125,-5.157220363616943,-5.4701337814331055,6.29691219329834
1759864139710934500,16.2189345703125,-5.166849613189697,-5.488317966461182,6.2731499671936035
1759864139721005600,16.229005615234374,-5.190929889678955,-5.494143009185791,6.248122215270996
1759864139731045600,16.239045654296874,-5.225111484527588,-5.485421657562256,6.227263450622559
1759864139741147100,16.249147216796874,-5.265048503875732,-5.467552185058594,6.209312915802002
1759864139771359500,16.279359375,-5.388756275177002,-5.404308319091797,6.158339977264404
1759864139781430300,16.28943017578125,-5.419824600219727,-5.384782791137695,6.148169040679932
1759864139791470600,16.299470703125,-5.454809665679932,-5.3622283935546875,6.136931896209717
1759864139801571800,16.30957177734375,-5.495783805847168,-5.335198879241943,6.123920917510986
1759864139811581700,16.319581787109374,-5.54202127456665,-5.304744720458984,6.108689308166504
1759864139821683000,16.329682861328124,-5.587902545928955,-5.27545166015625,6.092241287231445
1759864139831753700,16.339753662109374,-5.632680416107178,-5.2468485832214355,6.075677871704102
1759864139841824500,16.349824462890624,-5.667751312255859,-5.224438190460205,6.062365531921387
1759864139851834400,16.35983447265625,-5.703576564788818,-5.201361179351807,6.0485944747924805
1759864139861935600,16.369935546875,-5.73345947265625,-5.181223392486572,6.037615776062012
1759864139882138400,16.390138427734374,-5.779209136962891,-5.150733470916748,6.020054817199707
1759864139892178400,16.400178466796874,-5.797421932220459,-5.1404876708984375,6.011293411254883
1759864139902280000,16.410280029296874,-5.819250583648682,-5.12801456451416,6.000854015350342
1759864139912350700,16.420350830078124,-5.824976921081543,-5.124434947967529,5.998349666595459
1759864139922421500,16.43042138671875,-5.840022563934326,-5.121633529663086,5.986102104187012
1759864139932461800,16.4404619140625,-5.844446659088135,-5.121849060058594,5.981598377227783
1759864139942532600,16.45053271484375,-5.850924968719482,-5.1301045417785645,5.968175411224365
1759864139952633900,16.4606337890625,-5.850764274597168,-5.14345121383667,5.9568328857421875
1759864139962704600,16.47070458984375,-5.844089508056641,-5.165417194366455,5.944366931915283
1759864139972775400,16.480775390625,-5.836766242980957,-5.173262119293213,5.9447407722473145
1759864139982846200,16.49084619140625,-5.823824882507324,-5.188180923461914,5.944427490234375
1759864139992917000,16.5009169921875,-5.788002967834473,-5.19520902633667,5.973208904266357
1759864140003018500,16.5110185546875,-5.780056953430176,-5.213524341583252,5.964936256408691
1759864140013058600,16.52105859375,-5.776569843292236,-5.23262882232666,5.95157527923584
1759864140023160000,16.53116015625,-5.770259857177734,-5.257563591003418,5.935699939727783
1759864140033230800,16.54123095703125,-5.7653117179870605,-5.2663774490356445,5.932696342468262
1759864140043240400,16.551240478515624,-5.755797863006592,-5.2798590660095215,5.929947376251221
1759864140053342000,16.561342041015624,-5.743189334869385,-5.289095401763916,5.933940887451172
1759864140083584800,16.591584716796874,-5.700957298278809,-5.306732654571533,5.958866596221924
1759864140093625000,16.601625,-5.68623161315918,-5.305283069610596,5.974205017089844
1759864140103726300,16.611726318359374,-5.682065010070801,-5.302696228027344,5.98046350479126
1759864140113797000,16.621797119140624,-5.676445484161377,-5.292455196380615,5.994854927062988
1759864140123868000,16.631867919921874,-5.681534290313721,-5.282197952270508,5.999078750610352
1759864140133938700,16.641938720703124,-5.686592102050781,-5.276249885559082,5.999524116516113
1759864140144040200,16.652040283203124,-5.701876163482666,-5.262013912200928,5.997519493103027
1759864140154111000,16.662111083984374,-5.717860221862793,-5.242878437042236,5.999058246612549
1759864140184384300,16.69238427734375,-5.720202445983887,-5.21687126159668,6.019463062286377
1759864140194485800,16.70248583984375,-5.684464454650879,-5.215270042419434,6.054603576660156
1759864140204556500,16.712556640625,-5.615570068359375,-5.217153549194336,6.116949081420898
1759864140214627300,16.72262744140625,-5.5679240226745605,-5.2232770919799805,6.155162811279297
1759864140224698000,16.732697998046874,-5.550387382507324,-5.228727340698242,6.166360378265381
1759864140234769000,16.742768798828124,-5.501383304595947,-5.234158039093018,6.205546855926514
1759864140244870100,16.7528701171875,-5.496634483337402,-5.236198425292969,6.208029747009277
1759864140295193600,16.803193603515624,-5.6323747634887695,-5.129301071166992,6.175525188446045
1759864140315396400,16.823396240234374,-5.701693534851074,-5.111239433288574,6.1266865730285645
1759864140325467100,16.833467041015624,-5.7557501792907715,-5.0841522216796875,6.0986199378967285
1759864140335538000,16.843537841796874,-5.77495813369751,-5.075496196746826,6.0876545906066895
1759864140345639200,16.85363916015625,-5.8068060874938965,-5.056374549865723,6.073263168334961
1759864140355710000,16.8637099609375,-5.837656497955322,-5.037049770355225,6.059726238250732
1759864140365780700,16.87378076171875,-5.865228176116943,-5.020606994628906,6.0467376708984375
1759864140395962600,16.903962646484374,-5.920384407043457,-4.998790264129639,6.010950088500977
1759864140406033400,16.914033447265624,-5.931493759155273,-5.0008769035339355,5.998252868652344
1759864140416135000,16.924135009765624,-5.940338134765625,-5.0065178871154785,5.984776973724365
1759864140426175200,16.93417529296875,-5.9525885581970215,-5.017764091491699,5.963149070739746
1759864140436276500,16.9442763671875,-5.9541850090026855,-5.0234198570251465,5.956794738769531
1759864140446377700,16.954377685546874,-5.958712577819824,-5.032863140106201,5.944277763366699
1759864140456418000,16.96441796875,-5.96187686920166,-5.042205333709717,5.9331793785095215
1759864140466519300,16.974519287109374,-5.964793682098389,-5.055087566375732,5.919273376464844
1759864140476590000,16.984590087890624,-5.961559295654297,-5.067751884460449,5.9116926193237305
1759864140506802700,17.014802734375,-5.931044578552246,-5.113693714141846,5.902815341949463
1759864140516873500,17.02487353515625,-5.9099531173706055,-5.135119438171387,5.905371189117432
1759864140526944300,17.0349443359375,-5.882131576538086,-5.158618450164795,5.912664413452148
1759864140536984600,17.044984619140624,-5.83266544342041,-5.1926984786987305,5.931804180145264
1759864140547085800,17.0550859375,-5.806604862213135,-5.211243629455566,5.941103458404541
1759864140557187000,17.06518701171875,-5.753046989440918,-5.251564025878906,5.957678318023682
1759864140567288300,17.075288330078124,-5.713239669799805,-5.2835259437561035,5.967719554901123
1759864140577359000,17.085359130859374,-5.6733832359313965,-5.31508207321167,5.977711200714111
1759864140617673000,17.1256728515625,-5.609579086303711,-5.373340129852295,5.985837459564209
1759864140627713300,17.13571337890625,-5.612334728240967,-5.374253273010254,5.982433795928955
1759864140637784000,17.1457841796875,-5.640378475189209,-5.364230632781982,5.965033054351807
1759864140647824400,17.155824462890624,-5.661595344543457,-5.36000394821167,5.948707580566406
1759864140657925600,17.165925537109374,-5.683539867401123,-5.358891010284424,5.9287519454956055
1759864140668027000,17.17602685546875,-5.703827857971191,-5.360666751861572,5.907618522644043
1759864140678097700,17.18609765625,-5.7176642417907715,-5.367378234863281,5.888118267059326
1759864140718381000,17.226381103515624,-5.711260795593262,-5.430302619934082,5.836413860321045
1759864140728482300,17.236482421875,-5.700379848480225,-5.458600997924805,5.820631504058838
1759864140738553000,17.246552978515624,-5.69247579574585,-5.485809326171875,5.802760601043701
1759864140748624000,17.256623779296874,-5.687098026275635,-5.510418891906738,5.784691333770752
1759864140758694700,17.266694580078124,-5.682319164276123,-5.531585693359375,5.769158840179443
1759864140768735000,17.27673486328125,-5.679511547088623,-5.5464019775390625,5.757689952850342
1759864140778805800,17.2868056640625,-5.68772554397583,-5.547400951385498,5.748610973358154
1759864140788846000,17.29684619140625,-5.716095924377441,-5.529710292816162,5.737504482269287
1759864140819058400,17.327058349609374,-5.82948112487793,-5.469893932342529,5.680480480194092
1759864140839200000,17.347199951171874,-5.89401388168335,-5.441222667694092,5.641286849975586
1759864140859311000,17.36731103515625,-5.945640563964844,-5.408204078674316,5.618815898895264
1759864140869382000,17.3773818359375,-5.972447872161865,-5.387512683868408,5.610256195068359
1759864140879452700,17.38745263671875,-6.018347263336182,-5.348664283752441,5.59836483001709
1759864140889523500,17.3975234375,-6.033395767211914,-5.3346848487854,5.5955047607421875
1759864140909665000,17.4176650390625,-6.090868949890137,-5.281039714813232,5.584110736846924
1759864140919766500,17.4277666015625,-6.112975597381592,-5.260538101196289,5.5793070793151855
1759864140929806600,17.437806640625,-6.128176212310791,-5.245944976806641,5.57636833190918
1759864140939908000,17.447908203125,-6.137678623199463,-5.236740589141846,5.574570655822754
1759864140949979000,17.457978759765624,-6.140065670013428,-5.2327985763549805,5.575644016265869
1759864140960080100,17.468080078125,-6.132603168487549,-5.236716270446777,5.580175876617432
1759864140970212000,17.478212158203124,-6.1218953132629395,-5.244427680969238,5.584690093994141
1759864140980313300,17.488313232421874,-6.1110520362854,-5.253759384155273,5.587800979614258
1759864140990384000,17.498384033203124,-6.1003570556640625,-5.26505184173584,5.5888519287109375
1759864141030697700,17.53869775390625,-6.065877914428711,-5.309845447540283,5.584001064300537
1759864141050870000,17.5588701171875,-6.0450921058654785,-5.328901290893555,5.5883893966674805
1759864141071072500,17.579072509765624,-6.0333075523376465,-5.335989952087402,5.594351768493652
1759864141081143300,17.589143310546874,-6.038333892822266,-5.337447643280029,5.587538242340088
1759864141091214000,17.599214111328124,-6.037057399749756,-5.338925838470459,5.587502479553223
1759864141101284900,17.609284912109374,-6.032041072845459,-5.348495960235596,5.583769798278809
1759864141121426700,17.6294267578125,-6.0055975914001465,-5.368955135345459,5.592629432678223
1759864141131436300,17.639436279296874,-5.996041297912598,-5.37489652633667,5.597177505493164
1759864141141537800,17.649537841796874,-5.977447032928467,-5.389403343200684,5.6031107902526855
1759864141151608600,17.659608642578124,-5.95956563949585,-5.405694961547852,5.6064629554748535
1759864141161709800,17.669709716796874,-5.93294620513916,-5.4285502433776855,5.61260986328125
1759864141171750100,17.679750244140624,-5.914087295532227,-5.441561222076416,5.619907855987549
1759864141181851400,17.689851318359374,-5.894590854644775,-5.455288410186768,5.627081394195557
1759864141191922200,17.699922119140624,-5.875391483306885,-5.469849109649658,5.633019924163818
1759864141232205300,17.740205322265624,-5.831902503967285,-5.489311695098877,5.65921688079834
1759864141242276000,17.750276123046874,-5.821605682373047,-5.476022243499756,5.682651042938232
1759864141252286000,17.760285888671874,-5.824353218078613,-5.4681596755981445,5.687405109405518
1759864141262387200,17.77038720703125,-5.817886829376221,-5.455656051635742,5.705996513366699
1759864141272458000,17.7804580078125,-5.806013584136963,-5.445671558380127,5.727587699890137
1759864141282498300,17.790498291015624,-5.790035247802734,-5.440647602081299,5.7485032081604
1759864141292569000,17.800569091796874,-5.7723612785339355,-5.443528652191162,5.763529300689697
1759864141302670600,17.810670654296874,-5.764010429382324,-5.451014518737793,5.764811992645264
1759864141332883000,17.840883056640624,-5.813759803771973,-5.463982105255127,5.702235698699951
1759864141342984200,17.850984130859374,-5.846590518951416,-5.4560322761535645,5.6762213706970215
1759864141353024500,17.8610244140625,-5.871613025665283,-5.457353591918945,5.649054050445557
1759864141363125800,17.871125732421874,-5.905490875244141,-5.443334102630615,5.627223968505859
1759864141373196500,17.881196533203124,-5.943286418914795,-5.424463272094727,5.605622291564941
1759864141383267300,17.891267333984374,-5.982335567474365,-5.40549898147583,5.582350730895996
1759864141403409000,17.911408935546874,-6.059865951538086,-5.373749256134033,5.529125213623047
1759864141433621500,17.94162158203125,-6.163053512573242,-5.332098007202148,5.454899787902832
1759864141443692300,17.9516923828125,-6.187580585479736,-5.322267532348633,5.436700820922852
1759864141453763000,17.96176318359375,-6.206638813018799,-5.314818382263184,5.422248363494873
1759864141463833900,17.971833740234374,-6.2212233543396,-5.308609962463379,5.411602020263672
1759864141473904600,17.981904541015624,-6.231461524963379,-5.304189205169678,5.404155731201172
1759864141484006000,17.992005859375,-6.239030838012695,-5.301102638244629,5.398444175720215
1759864141494107100,18.002107177734374,-6.245810508728027,-5.298453330993652,5.3932037353515625
1759864141504147500,18.0121474609375,-6.251004695892334,-5.296277046203613,5.389324188232422
1759864141514249000,18.0222490234375,-6.253865718841553,-5.293954849243164,5.388280868530273
1759864141544430800,18.052430908203124,-6.252216815948486,-5.281384468078613,5.402517318725586
1759864141554532000,18.062531982421874,-6.249821186065674,-5.276881694793701,5.409684658050537
1759864141564603000,18.072602783203124,-6.243969440460205,-5.2752766609191895,5.4180006980896
1759864141574673700,18.082673583984374,-6.233658313751221,-5.277235507965088,5.427953720092773
1759864141584744400,18.092744384765624,-6.216557025909424,-5.28555154800415,5.439462184906006
1759864141594815200,18.102815185546874,-6.192544937133789,-5.300384521484375,5.452401638031006
1759864141604916500,18.11291650390625,-6.155953407287598,-5.325324535369873,5.469510078430176
1759864141615018000,18.12301806640625,-6.125044822692871,-5.344654083251953,5.485335350036621
1759864141625088800,18.1330888671875,-6.098442554473877,-5.359002113342285,5.50095272064209
1759864141655301000,18.163301025390624,-6.0114359855651855,-5.41878080368042,5.538040637969971
1759864141665402400,18.17340234375,-5.992889881134033,-5.4360857009887695,5.541173934936523
1759864141675473200,18.18347314453125,-5.987739086151123,-5.446845531463623,5.536181449890137
1759864141685574700,18.19357470703125,-5.986837387084961,-5.452621936798096,5.531467437744141
1759864141695645400,18.2036455078125,-5.99894905090332,-5.4544525146484375,5.516519546508789
1759864141705685500,18.213685546875,-6.015759468078613,-5.449553966522217,5.503036975860596
1759864141715756500,18.223756591796874,-6.028839588165283,-5.445816516876221,5.492411136627197
1759864141725827300,18.233827392578124,-6.035068988800049,-5.44808292388916,5.483316898345947
1759864141735898000,18.243898193359374,-6.0368170738220215,-5.455024242401123,5.474483489990234
1759864141756070100,18.264070068359374,-6.032893180847168,-5.467142581939697,5.466710567474365
1759864141766141000,18.274140869140624,-6.026148796081543,-5.4742431640625,5.467044830322266
1759864141786343700,18.29434375,-6.009418964385986,-5.497471809387207,5.462151050567627
1759864141796414500,18.30441455078125,-6.000586032867432,-5.511527061462402,5.457695484161377
1759864141806515700,18.314515625,-5.990325927734375,-5.524428844451904,5.455921173095703
1759864141816586500,18.32458642578125,-5.963428974151611,-5.544415473937988,5.465106964111328
1759864141826657300,18.3346572265625,-5.944972991943359,-5.555333137512207,5.474117755889893
1759864141836728000,18.34472802734375,-5.9405059814453125,-5.557657718658447,5.4766106605529785
1759864141846768400,18.354768310546874,-5.926287651062012,-5.565460205078125,5.484079837799072
1759864141866849000,18.37484912109375,-5.90624475479126,-5.578646659851074,5.492298126220703
1759864141876919800,18.384919921875,-5.886529445648193,-5.588814735412598,5.503122806549072
1759864141887021000,18.39502099609375,-5.871950149536133,-5.594872951507568,5.512534141540527
1759864141897061400,18.405061279296874,-5.876651763916016,-5.591067314147949,5.51138162612915
1759864141907132200,18.415132080078124,-5.894710540771484,-5.576371669769287,5.506988525390625
1759864141917172500,18.42517236328125,-5.921558856964111,-5.556602478027344,5.498152732849121
1759864141927273700,18.435273681640624,-5.937839508056641,-5.544916152954102,5.492394924163818
1759864141937314000,18.44531396484375,-6.000195026397705,-5.501136302947998,5.468599796295166
1759864141957486000,18.465486083984374,-6.067924976348877,-5.454891204833984,5.440117835998535
1759864141987729200,18.495729248046874,-6.1714253425598145,-5.37743616104126,5.4006547927856445
1759864141997800000,18.505800048828124,-6.19059419631958,-5.361363887786865,5.394695281982422
1759864142007870700,18.51587060546875,-6.202678680419922,-5.349009037017822,5.393080234527588
1759864142017941500,18.52594140625,-6.21075963973999,-5.337423324584961,5.395255088806152
1759864142028042800,18.536042724609374,-6.210426330566406,-5.336023807525635,5.3970232009887695
1759864142038113500,18.546113525390624,-6.204224109649658,-5.334966659545898,5.405195713043213
1759864142068356600,18.576356689453124,-6.196092128753662,-5.334343433380127,5.415132522583008
1759864142078457900,18.586457763671874,-6.1945600509643555,-5.335511684417725,5.415730953216553
1759864142088559000,18.59655908203125,-6.196909427642822,-5.336256980895996,5.41231107711792
1759864142098599400,18.606599365234374,-6.200408935546875,-5.335994720458984,5.4085588455200195
1759864142108670200,18.616670166015624,-6.202759742736816,-5.33314323425293,5.408675670623779
